time		accX		s_accX		accX_var	accY		s_accY		accY_var	accZ			   		s_accZ		accZ_var	pitch		s_pitch		pitch_var	roll		s_roll		roll_var	yaw			s_yaw		yaw_var
0.050000	0.018707	0.018707	0.000081	-0.001266	-0.001266	0.003139	-0.989761	-0.989761	0.000001	-0.003120	-0.003120	0.000202	-0.000701	-0.000701	0.000172	-0.000956	-0.000956	0.005734
0.100000	0.017670	0.017400	0.000000	-0.003250	-0.001302	0.000000	-0.989792	-0.990453	0.000000	-0.010556	-0.004796	0.000000	-0.007811	-0.002273	0.000000	0.003565	0.000948	0.000000
0.150000	0.015823	0.017151	0.000000	0.000610	-0.000134	0.000000	-0.991806	-0.990210	0.000000	-0.000713	-0.009015	0.000000	0.001693	-0.003552	0.000000	0.000235	0.000604	0.000000
0.200000	0.014755	0.016553	0.000000	0.001617	-0.000140	0.000000	-0.987961	-0.990033	0.000000	-0.016596	-0.009007	0.000000	-0.003081	-0.005934	0.000000	0.001261	0.000351	0.000000
0.250000	0.018799	0.016183	0.000000	0.001617	0.001230	0.000000	-0.991730	-0.989664	0.000000	-0.014091	-0.009446	0.000000	-0.007858	-0.005713	0.000000	-0.001083	-0.001500	0.000000
0.300000	0.015717	0.015579	0.000000	-0.001297	0.001227	0.000000	-0.988876	-0.989291	0.000000	-0.003080	-0.009652	0.000000	-0.012611	-0.005964	0.000000	-0.002222	-0.002892	0.000000
0.350000	0.015823	0.015576	0.000000	0.003601	0.001428	0.000000	-0.987946	-0.988901	0.000000	-0.012749	-0.006463	0.000000	-0.006707	-0.005965	0.000000	-0.005693	-0.003569	0.000000
0.400000	0.012802	0.014960	0.000000	0.000595	0.001437	0.000000	-0.989945	-0.987753	0.000000	-0.001747	-0.003054	0.000000	0.000439	-0.005957	0.000000	-0.006724	-0.003319	0.000000
0.450000	0.014740	0.014786	0.000000	0.002625	0.002603	0.000000	-0.986008	-0.987765	0.000000	-0.000648	-0.002402	0.000000	-0.003087	0.000257	0.000000	-0.002122	-0.000482	0.000000
0.500000	0.015717	0.014386	0.000000	0.001663	0.002200	0.000000	-0.985992	-0.988162	0.000000	0.002953	-0.000216	0.000000	-0.007820	0.000253	0.000000	0.000168	-0.000473	0.000000
0.550000	0.014847	0.015134	0.000000	0.004532	0.001639	0.000000	-0.988937	-0.987769	0.000000	0.000181	-0.001505	0.000000	0.018462	-0.002116	0.000000	0.011960	0.001810	0.000000
0.600000	0.013824	0.015302	0.000000	0.001587	0.000275	0.000000	-0.989929	-0.989151	0.000000	-0.001819	-0.001270	0.000000	-0.006728	-0.002837	0.000000	-0.005646	0.001802	0.000000
0.650000	0.016541	0.014728	0.000000	-0.002213	0.000250	0.000000	-0.987976	-0.989951	0.000000	-0.008192	-0.003504	0.000000	-0.011405	-0.003081	0.000000	0.004688	0.002708	0.000000
0.700000	0.015579	0.014935	0.000000	-0.004196	0.000253	0.000000	-0.992920	-0.989755	0.000000	0.000527	-0.004403	0.000000	-0.006693	-0.007883	0.000000	-0.002162	-0.000585	0.000000
0.750000	0.012848	0.015729	0.000000	0.001541	0.000259	0.000000	-0.989990	-0.989175	0.000000	-0.008216	0.002414	0.000000	-0.009041	0.002359	0.000000	0.004700	-0.000456	0.000000
0.800000	0.015884	0.015894	0.000000	0.004547	-0.000510	0.000000	-0.987961	-0.988788	0.000000	-0.004312	0.008319	0.000000	-0.005549	0.013288	0.000000	-0.004502	-0.002873	0.000000
0.850000	0.017792	0.016742	0.000000	0.001617	-0.000739	0.000000	-0.987030	-0.988770	0.000000	0.032264	0.009284	0.000000	0.044480	0.024468	0.000000	-0.005002	-0.003001	0.000000
0.900000	0.017365	0.018835	0.000000	-0.006058	-0.002246	0.000000	-0.986038	-0.988376	0.000000	0.021334	0.012999	0.000000	0.043241	0.028021	0.000000	-0.007397	-0.005264	0.000000
0.950000	0.019821	0.020596	0.000000	-0.005341	-0.003406	0.000000	-0.992828	-0.987985	0.000000	0.005350	0.012826	0.000000	0.049208	0.028960	0.000000	-0.002804	-0.007800	0.000000
1.000000	0.023315	0.020395	0.000000	-0.005997	-0.004596	0.000000	-0.988022	-0.988351	0.000000	0.010357	-0.001211	0.000000	0.008723	0.015195	0.000000	-0.006614	-0.002449	0.000000
1.050000	0.024689	0.024069	0.000000	-0.001251	-0.008868	0.000000	-0.986008	-0.988339	0.000000	-0.005177	-0.006228	0.000000	-0.000853	0.004066	0.000000	-0.017184	0.003210	0.000000
1.100000	0.016785	0.020923	0.000000	-0.004333	-0.030002	0.000000	-0.988861	-0.986963	0.000000	-0.037921	-0.008922	0.000000	-0.024345	-0.003352	0.000000	0.021756	0.022570	0.000000
1.150000	0.035736	0.018799	0.000000	-0.027420	-0.060556	0.000000	-0.985977	-0.986765	0.000000	-0.003749	-0.007635	0.000000	-0.012403	-0.006021	0.000000	0.020897	0.066291	0.000000
1.200000	0.004089	0.019321	0.000000	-0.111008	-0.086957	0.000000	-0.985947	-0.987158	0.000000	-0.008121	-0.007237	0.000000	0.012119	-0.005726	0.000000	0.093997	0.097304	0.000000
1.250000	0.012695	0.009717	0.000000	-0.158768	-0.111472	0.000000	-0.987030	-0.987762	0.000000	0.016791	0.003490	0.000000	-0.004624	0.004007	0.000000	0.211989	0.116200	0.000000
1.300000	0.027298	-0.000772	0.000000	-0.133255	-0.124463	0.000000	-0.987976	-0.988162	0.000000	-0.003183	0.001717	0.000000	0.000625	0.004205	0.000000	0.137883	0.082879	0.000000
1.350000	-0.031235	0.005499	0.000000	-0.126907	-0.106909	0.000000	-0.991882	-0.989557	0.000000	0.015714	0.004297	0.000000	0.024318	0.012177	0.000000	0.116236	0.014251	0.000000
1.400000	-0.016708	0.003598	0.000000	-0.092377	-0.084973	0.000000	-0.987976	-0.990149	0.000000	-0.012617	-0.008927	0.000000	-0.011413	0.015825	0.000000	-0.145708	-0.056356	0.000000
1.450000	0.035446	0.005234	0.000000	-0.023239	-0.058337	0.000000	-0.992920	-0.990146	0.000000	0.004780	-0.026008	0.000000	0.051982	0.024218	0.000000	-0.249145	-0.101488	0.000000
1.500000	0.003189	0.027600	0.000000	-0.049088	-0.025186	0.000000	-0.989990	-0.989175	0.000000	-0.049327	-0.038257	0.000000	0.013611	0.024456	0.000000	-0.141044	-0.153840	0.000000
1.550000	0.035477	0.027841	0.000000	-0.000076	0.005750	0.000000	-0.987961	-0.988788	0.000000	-0.088589	-0.047603	0.000000	0.042593	0.024816	0.000000	-0.087781	-0.114316	0.000000
1.600000	0.080597	0.041531	0.000000	0.038849	-0.011401	0.000000	-0.987030	-0.988770	0.000000	-0.045534	-0.040767	0.000000	0.025509	-0.000929	0.000000	-0.145525	-0.068232	0.000000
1.650000	-0.015503	0.042896	0.000000	0.062302	-0.004742	0.000000	-0.986038	-0.988376	0.000000	-0.059344	-0.021852	0.000000	-0.009614	-0.008985	0.000000	0.051912	0.036623	0.000000
1.700000	0.103897	0.014423	0.000000	-0.108994	-0.008954	0.000000	-0.992828	-0.987985	0.000000	0.038959	-0.022430	0.000000	-0.076743	-0.010589	0.000000	-0.018723	0.094919	0.000000
1.750000	0.010010	0.009860	0.000000	-0.015793	-0.000980	0.000000	-0.988022	-0.988351	0.000000	0.045249	-0.019830	0.000000	-0.026668	-0.016747	0.000000	0.383229	0.071048	0.000000
1.800000	-0.106888	0.018671	0.000000	-0.021133	-0.014539	0.000000	-0.986008	-0.988339	0.000000	-0.091478	-0.004828	0.000000	0.034571	-0.020801	0.000000	0.203704	0.066925	0.000000
1.850000	0.057785	0.017270	0.000000	0.078720	0.003418	0.000000	-0.988861	-0.986963	0.000000	-0.032537	-0.023343	0.000000	-0.005280	-0.006626	0.000000	-0.264881	0.084068	0.000000
1.900000	0.028549	0.006723	0.000000	-0.005493	0.012607	0.000000	-0.985977	-0.986765	0.000000	0.015668	-0.034400	0.000000	-0.029886	0.004543	0.000000	0.031295	0.004968	0.000000
1.950000	0.096893	0.016614	0.000000	-0.019211	0.032349	0.000000	-0.985947	-0.987158	0.000000	-0.053616	-0.002622	0.000000	-0.005867	-0.004643	0.000000	0.066993	-0.042394	0.000000
2.000000	-0.042725	0.013419	0.000000	0.030151	0.039755	0.000000	-0.987030	-0.987762	0.000000	-0.010039	0.002346	0.000000	0.029179	-0.005851	0.000000	-0.012274	-0.045407	0.000000
2.050000	-0.057434	0.006656	0.000000	0.077576	0.053952	0.000000	-0.987976	-0.987372	0.000000	0.067414	0.000964	0.000000	-0.011359	-0.002806	0.000000	-0.033104	-0.103014	0.000000
2.100000	0.041809	-0.000726	0.000000	0.115753	0.088168	0.000000	-0.991882	-0.989536	0.000000	-0.007699	0.006444	0.000000	-0.011324	-0.006199	0.000000	-0.279944	-0.188647	0.000000
2.150000	-0.005264	0.011359	0.000000	0.065491	0.101373	0.000000	-0.984024	-0.990301	0.000000	0.008759	0.012958	0.000000	-0.014660	-0.018305	0.000000	-0.256744	-0.185271	0.000000
2.200000	0.059982	0.028598	0.000000	0.151871	0.111063	0.000000	-0.996765	-0.990509	0.000000	-0.026217	-0.006131	0.000000	-0.022832	-0.017138	0.000000	-0.361170	-0.210131	0.000000
2.250000	0.017700	0.029465	0.000000	0.096176	0.117456	0.000000	-0.990860	-0.989908	0.000000	0.022534	-0.014268	0.000000	-0.031350	-0.018618	0.000000	0.004608	-0.161144	0.000000
2.300000	0.028763	0.034943	0.000000	0.126022	0.126456	0.000000	-0.989014	-0.990692	0.000000	-0.028032	-0.023408	0.000000	-0.005522	-0.018507	0.000000	-0.157406	-0.120246	0.000000
2.350000	0.046143	0.027304	0.000000	0.147720	0.106219	0.000000	-0.988876	-0.989328	0.000000	-0.048383	-0.018728	0.000000	-0.018725	-0.013886	0.000000	-0.035006	-0.031327	0.000000
2.400000	0.022125	0.027820	0.000000	0.110489	0.091821	0.000000	-0.987946	-0.988358	0.000000	-0.036945	-0.030581	0.000000	-0.014104	-0.010443	0.000000	-0.052255	-0.017248	0.000000
2.450000	0.021790	0.023560	0.000000	0.050690	0.063669	0.000000	-0.989945	-0.987753	0.000000	-0.002813	-0.029593	0.000000	0.000272	-0.010117	0.000000	0.083422	0.018393	0.000000
2.500000	0.020279	0.018307	0.000000	0.024185	0.046451	0.000000	-0.986008	-0.987765	0.000000	-0.036734	-0.000576	0.000000	-0.014134	-0.021235	0.000000	0.075004	0.073521	0.000000
2.550000	0.007462	0.018872	0.000002	-0.014740	0.026050	0.000017	-0.985992	-0.988162	0.000001	-0.023090	0.005220	0.000022	-0.003895	-0.017556	0.000021	0.020798	0.084461	0.000320
2.600000	0.019882	0.018097	0.000000	0.061630	0.017017	0.000000	-0.988937	-0.986777	0.000000	0.096705	0.006900	0.000000	-0.074313	-0.017946	0.000000	0.240637	0.067345	0.000000
2.650000	0.024948	0.017236	0.000000	0.008484	0.013675	0.000000	-0.989929	-0.986765	0.000000	-0.007965	0.014870	0.000000	0.004291	-0.016405	0.000000	0.002445	0.052132	0.000000
2.700000	0.017914	0.019113	0.000000	0.005524	0.017734	0.000000	-0.983017	-0.987946	0.000000	0.005584	0.019130	0.000000	-0.001677	-0.016436	0.000000	-0.002161	0.047990	0.000000
2.750000	0.015976	0.017703	0.000000	0.007477	0.006314	0.000000	-0.985947	-0.988138	0.000000	0.003118	-0.000796	0.000000	-0.006431	-0.000723	0.000000	-0.001061	-0.000800	0.000000
2.800000	0.016846	0.015283	0.000000	0.005554	0.005521	0.000000	-0.991898	-0.987759	0.000000	-0.001793	0.000414	0.000000	-0.004048	-0.000955	0.000000	0.000090	-0.000332	0.000000
2.850000	0.012833	0.014859	0.000000	0.004532	0.004938	0.000000	-0.989899	-0.988745	0.000000	-0.002924	-0.000073	0.000000	0.004248	-0.000719	0.000000	-0.003311	-0.000333	0.000000
2.900000	0.012848	0.014798	0.000000	0.004517	0.003979	0.000000	-0.988037	-0.987976	0.000000	-0.001918	-0.001035	0.000000	0.003132	0.000227	0.000000	0.004782	-0.000792	0.000000
2.950000	0.015793	0.014233	0.000000	0.002609	0.003561	0.000000	-0.987946	-0.988940	0.000000	0.003153	-0.003021	0.000000	-0.000494	-0.000272	0.000000	-0.002164	0.000566	0.000000
3.000000	0.015671	0.015213	0.000000	0.002686	0.003387	0.000000	-0.982101	-0.987952	0.000000	-0.001692	-0.004011	0.000000	-0.001703	-0.003632	0.000000	-0.003359	0.001209	0.000000
3.050000	0.014023	0.014819	0.000000	0.003464	0.003384	0.000000	-0.996719	-0.987961	0.000000	-0.011725	-0.005234	0.000000	-0.006543	-0.004854	0.000000	0.006880	0.001408	0.000000
3.100000	0.017731	0.014621	0.000000	0.003662	0.003583	0.000000	-0.984955	-0.987769	0.000000	-0.007873	-0.005946	0.000000	-0.012551	-0.005846	0.000000	-0.000095	0.000686	0.000000
3.150000	0.010880	0.014459	0.000000	0.004501	0.004153	0.000000	-0.988083	-0.988943	0.000000	-0.008036	-0.006433	0.000000	-0.002979	-0.006592	0.000000	0.005776	0.000661	0.000000
3.200000	0.014801	0.013858	0.000000	0.003601	0.004547	0.000000	-0.986984	-0.988184	0.000000	-0.000405	-0.005469	0.000000	-0.005452	-0.006111	0.000000	-0.005774	0.001134	0.000000
3.250000	0.014862	0.012900	0.000000	0.005539	0.005106	0.000000	-0.987976	-0.989191	0.000000	-0.004125	-0.002557	0.000000	-0.005437	-0.002294	0.000000	-0.003480	0.001647	0.000000
3.300000	0.011017	0.013687	0.000000	0.005432	0.004922	0.000000	-0.992920	-0.989166	0.000000	-0.006906	-0.000288	0.000000	-0.004136	-0.000412	0.000000	0.009242	-0.001100	0.000000
3.350000	0.012939	0.013495	0.000000	0.006454	0.005112	0.000000	-0.989990	-0.989175	0.000000	0.006688	-0.001557	0.000000	0.006533	-0.000397	0.000000	0.002472	0.000744	0.000000
3.400000	0.014816	0.013275	0.000000	0.003586	0.004526	0.000000	-0.987961	-0.988788	0.000000	0.003308	-0.000842	0.000000	0.006434	-0.001579	0.000000	-0.007960	0.001431	0.000000
3.450000	0.013840	0.014279	0.000000	0.004547	0.005124	0.000000	-0.987030	-0.988770	0.000000	-0.006749	-0.000277	0.000000	-0.005378	-0.004697	0.000000	0.003446	-0.001371	0.000000
3.500000	0.013763	0.014246	0.000000	0.002609	0.004150	0.000000	-0.986038	-0.988376	0.000000	-0.000552	-0.003959	0.000000	-0.011349	-0.007074	0.000000	-0.000044	-0.000487	0.000000
3.550000	0.016037	0.014447	0.000000	0.008423	0.004550	0.000000	-0.992828	-0.987985	0.000000	-0.004079	-0.004007	0.000000	-0.019727	-0.008486	0.000000	-0.004768	0.001351	0.000000
3.600000	0.012772	0.015250	0.000000	0.001587	0.004752	0.000000	-0.988022	-0.988351	0.000000	-0.011721	-0.004747	0.000000	-0.005352	-0.006611	0.000000	0.006889	0.001580	0.000000
3.650000	0.015823	0.015857	0.000000	0.005585	0.005347	0.000000	-0.986008	-0.988339	0.000000	0.003067	-0.003997	0.000000	-0.000622	-0.006170	0.000000	0.001230	0.000880	0.000000
3.700000	0.017853	0.015979	0.000000	0.005554	0.003604	0.000000	-0.988861	-0.986963	0.000000	-0.010450	-0.003511	0.000000	0.003997	-0.004771	0.000000	0.004595	0.000881	0.000000
3.750000	0.016800	0.016199	0.000000	0.005585	0.004395	0.000000	-0.985977	-0.986765	0.000000	0.003196	-0.000786	0.000000	-0.009145	-0.003875	0.000000	-0.003547	-0.000738	0.000000
3.800000	0.016647	0.016217	0.000000	-0.000290	0.004779	0.000000	-0.985947	-0.987158	0.000000	-0.001650	0.001363	0.000000	-0.012733	-0.000571	0.000000	-0.004763	0.000900	0.000000
3.850000	0.013870	0.015433	0.000000	0.005539	0.004565	0.000000	-0.987030	-0.987762	0.000000	0.001909	0.005055	0.000000	-0.000874	-0.002020	0.000000	-0.001207	-0.000258	0.000000
3.900000	0.015915	0.015421	0.000000	0.007507	0.004373	0.000000	-0.987976	-0.987372	0.000000	0.013812	0.004550	0.000000	0.015899	-0.001565	0.000000	0.009423	0.000422	0.000000
3.950000	0.013931	0.014697	0.000000	0.004486	0.005313	0.000000	-0.991882	-0.989536	0.000000	0.008009	0.004544	0.000000	-0.003245	0.000552	0.000000	-0.001195	0.000657	0.000000
4.000000	0.016739	0.014899	0.000000	0.004623	0.004916	0.000000	-0.984024	-0.990301	0.000000	0.000669	0.004301	0.000000	-0.006873	0.000540	0.000000	-0.000147	0.000648	0.000000
4.050000	0.013031	0.014297	0.000000	0.004410	0.004706	0.000000	-0.996765	-0.990509	0.000000	-0.001681	0.001669	0.000000	-0.002148	-0.002342	0.000000	-0.003588	-0.000791	0.000000
4.100000	0.014877	0.013705	0.000000	0.003555	0.004504	0.000000	-0.990860	-0.990713	0.000000	0.000695	-0.000033	0.000000	-0.000934	-0.002827	0.000000	-0.001250	-0.000583	0.000000
4.150000	0.012909	0.013727	0.000000	0.006454	0.004297	0.000000	-0.989014	-0.991879	0.000000	0.000653	-0.001699	0.000000	0.001490	-0.003076	0.000000	0.002228	-0.001754	0.000000
4.200000	0.010971	0.013684	0.000000	0.003479	0.003925	0.000000	-0.992905	-0.990323	0.000000	-0.000500	-0.002691	0.000000	-0.005673	-0.002583	0.000000	-0.000157	-0.000372	0.000000
4.250000	0.016846	0.013287	0.000000	0.003586	0.004312	0.000000	-0.989853	-0.989951	0.000000	-0.007660	-0.002215	0.000000	-0.008116	-0.001614	0.000000	-0.006004	0.000791	0.000000
4.300000	0.012817	0.013275	0.000000	0.002548	0.003925	0.000000	-0.988983	-0.989755	0.000000	-0.006645	-0.001456	0.000000	0.000317	-0.003749	0.000000	0.003322	0.000540	0.000000
4.350000	0.012894	0.014255	0.000000	0.005493	0.004736	0.000000	-0.988998	-0.988379	0.000000	0.003078	-0.001946	0.000000	0.003913	-0.001118	0.000000	0.004565	0.001251	0.000000
4.400000	0.012848	0.012848	0.000000	0.004517	0.004529	0.000000	-0.988037	-0.987833	0.000000	0.004446	0.000024	0.000000	-0.009186	-0.001107	0.000000	0.000974	0.001258	0.000000
4.450000	0.015869	0.012869	0.000000	0.007538	0.004913	0.000000	-0.986023	-0.988419	0.000000	-0.002949	0.002506	0.000000	0.007484	-0.001578	0.000000	0.003398	0.000338	0.000000
4.500000	0.009811	0.013675	0.000000	0.002548	0.005112	0.000000	-0.987122	-0.988788	0.000000	0.002191	0.002079	0.000000	-0.008062	-0.001584	0.000000	-0.005970	-0.001288	0.000000
4.550000	0.012924	0.014062	0.000000	0.004471	0.004727	0.000000	-0.991913	-0.988773	0.000000	0.005765	0.001140	0.000000	-0.002038	0.001266	0.000000	-0.001277	-0.002426	0.000000
4.600000	0.016922	0.014679	0.000000	0.006485	0.004718	0.000000	-0.990845	-0.989920	0.000000	0.000943	0.003637	0.000000	0.003884	-0.002303	0.000000	-0.003564	-0.003836	0.000000
4.650000	0.014786	0.015469	0.000000	0.002594	0.004532	0.000000	-0.987961	-0.989899	0.000000	-0.000248	0.003154	0.000000	0.005062	-0.003002	0.000000	-0.004717	-0.003386	0.000000
4.700000	0.018951	0.015649	0.000000	0.007492	0.004150	0.000000	-0.991760	-0.989111	0.000000	0.009534	0.000979	0.000000	-0.010358	-0.002053	0.000000	-0.003654	-0.003854	0.000000
4.750000	0.013763	0.015045	0.000000	0.001617	0.003955	0.000000	-0.987015	-0.989526	0.000000	-0.000222	0.001890	0.000000	-0.011562	-0.002729	0.000000	-0.003719	-0.000850	0.000000
4.800000	0.013824	0.015274	0.000000	0.002563	0.004736	0.000000	-0.987976	-0.989932	0.000000	-0.005114	0.002376	0.000000	0.002711	-0.004378	0.000000	-0.003616	-0.000171	0.000000
4.850000	0.013901	0.014258	0.000000	0.005508	0.004141	0.000000	-0.992920	-0.989172	0.000000	0.005498	0.000711	0.000000	0.000503	-0.002485	0.000000	0.011455	-0.001553	0.000000
4.900000	0.015930	0.014658	0.000000	0.006500	0.004144	0.000000	-0.989990	-0.989175	0.000000	0.002183	0.001441	0.000000	-0.003186	0.001099	0.000000	-0.001323	-0.001057	0.000000
4.950000	0.013870	0.014468	0.000000	0.004517	0.005130	0.000000	-0.987961	-0.988788	0.000000	0.001209	0.001963	0.000000	-0.000891	0.000150	0.000000	-0.010563	-0.001760	0.000000
5.000000	0.015762	0.015070	0.000000	0.001633	0.005328	0.000000	-0.987030	-0.988770	0.000000	0.003431	0.001107	0.000000	0.006357	-0.000123	0.000000	-0.001237	-0.005934	0.000000
5.050000	0.012878	0.015253	0.000188	0.007492	0.005334	0.004038	-0.986038	-0.988376	0.000002	-0.002505	0.000890	0.000166	-0.002035	-0.000833	0.000314	-0.007131	-0.006407	0.007961
5.100000	0.016907	0.015067	0.000000	0.006500	0.005722	0.000000	-0.992828	-0.987985	0.000000	0.001215	0.002541	0.000000	-0.000860	0.001581	0.000000	-0.009414	-0.003834	0.000000
5.150000	0.016846	0.015097	0.000000	0.006531	0.006897	0.000000	-0.988022	-0.988351	0.000000	0.001099	0.002087	0.000000	-0.006737	-0.001042	0.000000	-0.003691	-0.004788	0.000000
5.200000	0.012939	0.014896	0.000000	0.006454	0.006299	0.000000	-0.986008	-0.988339	0.000000	0.009465	0.002333	0.000000	0.011179	-0.003648	0.000000	0.002302	-0.004351	0.000000
5.250000	0.015915	0.015079	0.000000	0.007507	0.005518	0.000000	-0.988861	-0.986963	0.000000	0.001160	0.001559	0.000000	-0.006758	-0.005526	0.000000	-0.006005	-0.002293	0.000000
5.300000	0.011871	0.014471	0.000000	0.004501	0.004727	0.000000	-0.985977	-0.986765	0.000000	-0.001275	0.000319	0.000000	-0.015063	-0.004564	0.000000	-0.004945	-0.001367	0.000000
5.350000	0.017822	0.014450	0.000000	0.002594	0.004147	0.000000	-0.985947	-0.987158	0.000000	-0.002654	-0.001638	0.000000	-0.010252	-0.006933	0.000000	0.000876	-0.000708	0.000000
5.400000	0.013809	0.014038	0.000000	0.002579	0.002957	0.000000	-0.987030	-0.986981	0.000000	-0.005101	-0.000959	0.000000	-0.001926	-0.004285	0.000000	0.000938	0.001631	0.000000
5.450000	0.012833	0.015048	0.000000	0.003555	0.002762	0.000000	-0.987976	-0.988370	0.000000	-0.000319	-0.002462	0.000000	-0.000666	-0.002602	0.000000	0.005596	0.003256	0.000000
5.500000	0.013855	0.014645	0.000000	0.001556	0.002762	0.000000	-0.987976	-0.989178	0.000000	0.004554	-0.001515	0.000000	0.006482	0.001222	0.000000	0.005688	0.004451	0.000000
5.550000	0.016922	0.013657	0.000000	0.003525	0.002551	0.000000	-0.992920	-0.989365	0.000000	-0.008789	-0.001246	0.000000	-0.006650	0.000744	0.000000	0.003181	0.003753	0.000000
5.600000	0.015808	0.013660	0.000000	0.002594	0.003140	0.000000	-0.989990	-0.989175	0.000000	0.002081	-0.002684	0.000000	0.008869	-0.001170	0.000000	0.006853	0.002802	0.000000
5.650000	0.008865	0.013834	0.000000	0.001526	0.003751	0.000000	-0.987961	-0.988788	0.000000	-0.003758	-0.004345	0.000000	-0.004313	-0.003805	0.000000	-0.002555	0.001149	0.000000
5.700000	0.012848	0.012576	0.000000	0.006500	0.003784	0.000000	-0.987030	-0.988770	0.000000	-0.007505	0.007993	0.000000	-0.010238	-0.001134	0.000000	0.000841	0.004943	0.000000
5.750000	0.014725	0.011627	0.000000	0.004608	0.004144	0.000000	-0.986038	-0.988376	0.000000	-0.003756	0.004374	0.000000	-0.006694	-0.003770	0.000000	-0.002577	0.003511	0.000000
5.800000	0.010635	0.016617	0.000000	0.003693	0.020816	0.000000	-0.992828	-0.987985	0.000000	0.052904	0.007320	0.000000	0.006704	-0.009161	0.000000	0.022154	0.012039	0.000000
5.850000	0.011063	0.009573	0.000000	0.004395	0.057144	0.000000	-0.988022	-0.988351	0.000000	-0.016016	0.008132	0.000000	-0.004310	-0.012829	0.000000	-0.000309	0.027281	0.000000
5.900000	0.033813	-0.001938	0.000000	0.084885	0.099725	0.000000	-0.986008	-0.988339	0.000000	0.010974	0.007199	0.000000	-0.031270	-0.007116	0.000000	0.040087	0.080083	0.000000
5.950000	-0.022369	-0.014999	0.000000	0.188141	0.120047	0.000000	-0.988861	-0.986963	0.000000	-0.003446	-0.004899	0.000000	-0.028576	-0.005724	0.000000	0.077052	0.076556	0.000000
6.000000	-0.042831	-0.034201	0.000000	0.217514	0.131409	0.000000	-0.985977	-0.986765	0.000000	-0.008422	-0.011726	0.000000	0.021872	0.002763	0.000000	0.261432	0.067338	0.000000
6.050000	-0.054672	-0.016293	0.000000	0.105301	0.143567	0.000000	-0.985947	-0.987158	0.000000	-0.007585	-0.013528	0.000000	0.013661	0.007154	0.000000	0.004519	0.025485	0.000000
6.100000	-0.084946	-0.004675	0.000000	0.061203	0.116696	0.000000	-0.987030	-0.987762	0.000000	-0.050150	0.000549	0.000000	0.038126	0.013154	0.000000	-0.046400	0.001090	0.000000
6.150000	0.123352	0.020734	0.000000	0.145676	0.089709	0.000000	-0.987976	-0.987372	0.000000	0.001965	-0.001931	0.000000	-0.009315	0.008228	0.000000	-0.169175	-0.097077	0.000000
6.200000	0.035721	0.008710	0.000000	0.053787	0.090649	0.000000	-0.991882	-0.989536	0.000000	0.066938	0.000242	0.000000	0.001425	-0.001745	0.000000	-0.044927	-0.068696	0.000000
6.250000	0.084213	0.022482	0.000000	0.082581	0.103998	0.000000	-0.984024	-0.989725	0.000000	-0.020822	0.000520	0.000000	-0.002755	-0.012684	0.000000	-0.229402	-0.015113	0.000000
6.300000	-0.114792	-0.002051	0.000000	0.110001	0.075711	0.000000	-0.996765	-0.990713	0.000000	0.003279	-0.010885	0.000000	-0.036207	-0.037596	0.000000	0.146425	0.074143	0.000000
6.350000	-0.016083	-0.027567	0.000000	0.127945	0.061536	0.000000	-0.987976	-0.990335	0.000000	-0.048761	-0.038983	0.000000	-0.016566	-0.033003	0.000000	0.221514	0.139279	0.000000
6.400000	0.000687	-0.040662	0.000000	0.004242	0.032565	0.000000	-0.992920	-0.991122	0.000000	-0.055056	-0.030655	0.000000	-0.133877	-0.036781	0.000000	0.277104	0.220043	0.000000
6.450000	-0.091858	-0.000168	0.000000	-0.017090	0.018332	0.000000	-0.989990	-0.989175	0.000000	-0.073553	-0.031646	0.000000	0.024391	-0.022117	0.000000	0.280751	0.183843	0.000000
6.500000	0.018738	0.006250	0.000000	-0.062271	-0.015051	0.000000	-0.987961	-0.988788	0.000000	0.020815	-0.011562	0.000000	-0.021648	-0.021327	0.000000	0.174421	0.162675	0.000000
6.550000	0.087677	0.007886	0.000000	0.038834	0.000452	0.000000	-0.987030	-0.988770	0.000000	-0.001676	-0.007721	0.000000	0.037114	0.019040	0.000000	-0.034572	0.073054	0.000000
6.600000	0.016006	0.030768	0.000000	-0.038971	-0.002991	0.000000	-0.986038	-0.988376	0.000000	0.051660	0.010367	0.000000	-0.012614	0.009446	0.000000	0.115671	0.035583	0.000000
6.650000	0.008865	0.023807	0.000000	0.081757	0.005560	0.000000	-0.992828	-0.987985	0.000000	-0.035854	0.011133	0.000000	0.067957	0.021891	0.000000	-0.170999	0.043105	0.000000
6.700000	0.022552	0.007904	0.000000	-0.034302	-0.010355	0.000000	-0.988022	-0.988351	0.000000	0.016888	0.014336	0.000000	-0.023578	0.010646	0.000000	0.093396	0.114980	0.000000
6.750000	-0.016067	0.012036	0.000000	-0.019516	-0.003793	0.000000	-0.986008	-0.988339	0.000000	0.024645	0.015995	0.000000	0.040574	0.008523	0.000000	0.212027	0.116821	0.000000
6.800000	0.008163	0.015753	0.000000	-0.040741	-0.027386	0.000000	-0.988861	-0.986963	0.000000	0.014340	0.023601	0.000000	-0.019108	-0.025661	0.000000	0.324806	0.125114	0.000000
6.850000	0.036667	0.002438	0.000000	-0.006165	-0.053174	0.000000	-0.985977	-0.986765	0.000000	0.059957	0.030326	0.000000	-0.023229	-0.030794	0.000000	0.124875	0.056384	0.000000
6.900000	0.027451	0.004993	0.000000	-0.036209	-0.109286	0.000000	-0.985947	-0.987158	0.000000	0.002177	0.029461	0.000000	-0.102963	-0.044185	0.000000	-0.129533	-0.029354	0.000000
6.950000	-0.044022	0.010922	0.000000	-0.163238	-0.136859	0.000000	-0.987030	-0.987762	0.000000	0.050513	0.019726	0.000000	-0.049246	-0.041218	0.000000	-0.250254	-0.148316	0.000000
7.000000	-0.003296	0.009756	0.000000	-0.300079	-0.143909	0.000000	-0.987976	-0.987372	0.000000	0.020321	-0.002091	0.000000	-0.026379	-0.040908	0.000000	-0.216663	-0.216928	0.000000
7.050000	0.037811	0.010114	0.000000	-0.178604	-0.133545	0.000000	-0.991882	-0.989536	0.000000	-0.034335	0.008832	0.000000	-0.004274	-0.043082	0.000000	-0.270006	-0.223602	0.000000
7.100000	0.030838	0.018658	0.000000	-0.041412	-0.099390	0.000000	-0.984024	-0.990301	0.000000	-0.049132	-0.000358	0.000000	-0.021677	-0.040711	0.000000	-0.218185	-0.171806	0.000000
7.150000	0.029236	0.020520	0.000000	0.015610	-0.038690	0.000000	-0.996765	-0.990509	0.000000	0.056790	-0.004893	0.000000	-0.113834	-0.033663	0.000000	-0.162902	-0.129892	0.000000
7.200000	-0.001297	0.014154	0.000000	0.007538	-0.002484	0.000000	-0.990860	-0.990741	0.000000	0.004567	0.003159	0.000000	-0.037393	-0.030541	0.000000	0.008725	-0.075444	0.000000
7.250000	0.006012	0.009564	0.000000	0.003418	0.006693	0.000000	-0.989014	-0.991568	0.000000	-0.002358	0.012728	0.000000	0.008861	-0.025612	0.000000	-0.007090	-0.032078	0.000000
7.300000	0.005981	0.004712	0.000000	0.002426	0.004257	0.000000	-0.993042	-0.990442	0.000000	0.005929	0.002082	0.000000	0.011338	-0.002725	0.000000	0.002233	0.000465	0.000000
7.350000	0.007889	0.006525	0.000000	0.004471	0.003064	0.000000	-0.988159	-0.989508	0.000000	-0.001289	0.000670	0.000000	0.002965	0.002253	0.000000	-0.001354	-0.001581	0.000000
7.400000	0.004974	0.006940	0.000000	0.003433	0.004047	0.000000	-0.991135	-0.990311	0.000000	0.003561	-0.001024	0.000000	0.000604	0.002009	0.000000	-0.000191	-0.002055	0.000000
7.450000	0.007767	0.007336	0.000000	0.001572	0.004651	0.000000	-0.986191	-0.989722	0.000000	-0.002493	-0.002987	0.000000	-0.012504	0.001535	0.000000	-0.001501	-0.001608	0.000000
7.500000	0.008087	0.007736	0.000000	0.008331	0.004855	0.000000	-0.993027	-0.989517	0.000000	-0.010830	-0.003506	0.000000	0.007641	0.002736	0.000000	-0.009463	-0.000443	0.000000
7.550000	0.007965	0.008310	0.000001	0.005447	0.004672	0.000001	-0.990097	-0.988919	0.000002	-0.003884	-0.003538	0.000003	0.008968	0.004890	0.000015	0.004470	0.000733	0.000003
7.600000	0.009888	0.008542	0.000000	0.005493	0.005847	0.000000	-0.987137	-0.988922	0.000000	-0.003884	-0.003578	0.000000	0.008970	0.008949	0.000000	0.004470	0.002158	0.000000
7.650000	0.007843	0.009512	0.000000	0.002518	0.005472	0.000000	-0.988144	-0.988315	0.000000	0.003401	-0.001883	0.000000	0.011374	0.008719	0.000000	0.005690	0.002628	0.000000
7.700000	0.008926	0.009729	0.000000	0.007446	0.005856	0.000000	-0.986206	-0.988702	0.000000	-0.002694	-0.000412	0.000000	0.007795	0.007769	0.000000	0.005623	0.002396	0.000000
7.750000	0.012939	0.009735	0.000000	0.006454	0.006445	0.000000	-0.989990	-0.988513	0.000000	-0.002352	0.000859	0.000000	0.006491	0.006803	0.000000	-0.007113	0.000543	0.000000
7.800000	0.009048	0.009775	0.000000	0.007370	0.007214	0.000000	-0.992035	-0.989487	0.000000	0.003470	0.000155	0.000000	0.004216	0.002510	0.000000	0.003310	-0.000425	0.000000
7.850000	0.009918	0.009372	0.000000	0.008438	0.006421	0.000000	-0.986191	-0.990073	0.000000	0.002467	0.000196	0.000000	0.004141	-0.001310	0.000000	-0.004794	-0.001848	0.000000
7.900000	0.008041	0.008167	0.000000	0.006363	0.005826	0.000000	-0.993011	-0.989902	0.000000	-0.000115	0.000168	0.000000	-0.010092	-0.004869	0.000000	0.000847	-0.000724	0.000000
7.950000	0.006912	0.008694	0.000000	0.003479	0.004880	0.000000	-0.989136	-0.987936	0.000000	-0.002491	0.000675	0.000000	-0.011306	-0.005351	0.000000	-0.001491	-0.001420	0.000000
8.000000	0.006912	0.009048	0.000000	0.003479	0.003720	0.000000	-0.989136	-0.987140	0.000000	-0.002491	0.001382	0.000000	-0.011306	-0.005818	0.000000	-0.001491	-0.000495	0.000000
8.050000	0.011688	0.009998	0.000000	0.002640	0.003360	0.000000	-0.982208	-0.985559	0.000000	0.006004	0.001164	0.000000	0.001808	-0.002956	0.000000	-0.000169	-0.001176	0.000000
8.100000	0.011688	0.011172	0.000000	0.002640	0.003577	0.000000	-0.982208	-0.984753	0.000000	0.006004	0.001420	0.000000	0.001808	0.000149	0.000000	-0.000169	-0.001389	0.000000
8.150001	0.012787	0.011789	0.000000	0.004562	0.004160	0.000000	-0.985107	-0.985327	0.000000	-0.001208	0.001154	0.000000	0.004217	0.000647	0.000000	-0.002557	-0.000240	0.000000
8.200000	0.012787	0.011429	0.000000	0.004562	0.004730	0.000000	-0.985107	-0.986313	0.000000	-0.001208	-0.001269	0.000000	0.004217	-0.000774	0.000000	-0.002557	-0.000509	0.000000
8.250000	0.009995	0.011072	0.000000	0.006393	0.004904	0.000000	-0.992004	-0.987878	0.000000	-0.003823	-0.002424	0.000000	-0.008814	-0.001258	0.000000	0.004251	-0.002614	0.000000
8.300000	0.009888	0.010278	0.000000	0.005493	0.004300	0.000000	-0.987137	-0.988483	0.000000	-0.006110	-0.002453	0.000000	-0.005299	-0.003390	0.000000	-0.001514	-0.001477	0.000000
8.350000	0.009903	0.008725	0.000000	0.003510	0.004660	0.000000	-0.990036	-0.989502	0.000000	0.000232	-0.001751	0.000000	-0.000612	-0.005520	0.000000	-0.010692	-0.000335	0.000000
8.400001	0.008820	0.008917	0.000000	0.001541	0.004272	0.000000	-0.988129	-0.989493	0.000000	-0.001355	-0.001239	0.000000	-0.006439	-0.004575	0.000000	0.003129	-0.001250	0.000000
8.450000	0.005020	0.008743	0.000000	0.006363	0.004449	0.000000	-0.990204	-0.990472	0.000000	0.002303	0.000674	0.000000	-0.006434	-0.003131	0.000000	0.003149	0.000162	0.000000
8.500000	0.010956	0.008560	0.000000	0.004456	0.004437	0.000000	-0.991959	-0.991058	0.000000	-0.001265	0.001063	0.000000	-0.004090	-0.004763	0.000000	-0.000320	0.003852	0.000000
8.550000	0.009018	0.007581	0.000000	0.006378	0.005219	0.000000	-0.992035	-0.990695	0.000000	0.003453	0.002105	0.000000	0.001920	-0.002642	0.000000	0.005545	0.001331	0.000000
8.600000	0.008987	0.008563	0.000000	0.003448	0.004642	0.000000	-0.992966	-0.991049	0.000000	0.002180	0.002153	0.000000	-0.008772	-0.001231	0.000000	0.007755	-0.000507	0.000000
8.650001	0.003922	0.007556	0.000000	0.005447	0.005035	0.000000	-0.986313	-0.989914	0.000000	0.003853	0.002885	0.000000	0.004165	-0.001705	0.000000	-0.009473	-0.000507	0.000000
8.700000	0.009933	0.007159	0.000000	0.003479	0.005237	0.000000	-0.991974	-0.989536	0.000000	0.002544	0.002159	0.000000	0.000624	-0.002422	0.000000	-0.006041	-0.000749	0.000000
8.750000	0.005920	0.006729	0.000000	0.006424	0.005450	0.000000	-0.986282	-0.987799	0.000000	0.002394	0.000725	0.000000	-0.006462	-0.000768	0.000000	-0.000322	-0.001899	0.000000
8.800000	0.007034	0.007712	0.000000	0.007385	0.005069	0.000000	-0.990143	-0.987772	0.000000	-0.000174	0.000181	0.000000	-0.001665	-0.000988	0.000000	0.004335	0.000178	0.000000
8.850000	0.006836	0.007089	0.000000	0.004517	0.005084	0.000000	-0.984283	-0.986230	0.000000	-0.004992	-0.000144	0.000000	-0.000504	-0.000961	0.000000	0.002004	0.003184	0.000000
8.900001	0.008835	0.008109	0.000000	0.003540	0.004886	0.000000	-0.986175	-0.987558	0.000000	0.001134	-0.000357	0.000000	0.003066	-0.000734	0.000000	0.000914	0.002028	0.000000
8.950000	0.006821	0.008316	0.000000	0.003555	0.004880	0.000000	-0.984268	-0.988132	0.000000	0.000919	0.000154	0.000000	0.000758	0.000210	0.000000	0.008990	0.001114	0.000000
9.000000	0.011017	0.008139	0.000000	0.005432	0.005063	0.000000	-0.992920	-0.988919	0.000000	0.001327	0.003576	0.000000	-0.005328	0.002370	0.000000	-0.006103	0.001142	0.000000
9.050000	0.008072	0.007941	0.000000	0.007355	0.004465	0.000000	-0.993011	-0.989697	0.000000	0.002384	0.002634	0.000000	0.003057	0.000469	0.000000	-0.000236	0.000184	0.000000
9.100000	0.005951	0.008374	0.000000	0.005432	0.004840	0.000000	-0.988220	-0.991052	0.000000	0.012114	0.001230	0.000000	0.010296	-0.001918	0.000000	0.002146	-0.001707	0.000000
9.150001	0.007843	0.007144	0.000000	0.000549	0.004648	0.000000	-0.990067	-0.989532	0.000000	-0.003573	-0.000267	0.000000	-0.006442	-0.003797	0.000000	-0.003877	-0.000123	0.000000
9.200000	0.008987	0.007513	0.000000	0.005432	0.003876	0.000000	-0.991043	-0.989130	0.000000	-0.006101	-0.000275	0.000000	-0.011174	-0.006872	0.000000	-0.000464	0.000533	0.000000
9.250000	0.004868	0.007706	0.000000	0.004471	0.003680	0.000000	-0.985321	-0.989124	0.000000	-0.006160	-0.002713	0.000000	-0.014722	-0.009018	0.000000	0.001817	0.000500	0.000000
9.300000	0.009918	0.007123	0.000000	0.003494	0.004852	0.000000	-0.990997	-0.988373	0.000000	0.002345	-0.001463	0.000000	-0.012319	-0.007598	0.000000	0.003043	-0.000638	0.000000
9.350000	0.006912	0.007300	0.000000	0.004456	0.004663	0.000000	-0.988190	-0.987787	0.000000	-0.000074	0.000973	0.000000	-0.000432	-0.003786	0.000000	0.001980	-0.000590	0.000000
9.400001	0.004929	0.008301	0.000000	0.006409	0.004666	0.000000	-0.986313	-0.988345	0.000000	0.002674	0.003629	0.000000	0.000658	-0.001155	0.000000	-0.009564	0.000374	0.000000
9.450000	0.009872	0.008496	0.000000	0.004486	0.004471	0.000000	-0.988113	-0.988339	0.000000	0.006078	0.003157	0.000000	0.007887	0.001694	0.000000	-0.000224	-0.000297	0.000000
9.500000	0.009872	0.008487	0.000000	0.004486	0.004477	0.000000	-0.988113	-0.987949	0.000000	0.007121	0.002425	0.000000	-0.001569	0.001693	0.000000	0.006637	-0.000301	0.000000
9.550000	0.010895	0.009299	0.000000	0.002518	0.004282	0.000000	-0.990967	-0.988895	0.000000	-0.000016	0.002121	0.000000	0.001927	-0.000667	0.000000	-0.000312	0.001990	0.000000
9.600000	0.006866	0.009503	0.000000	0.004486	0.003888	0.000000	-0.986237	-0.989465	0.000000	-0.003734	0.001877	0.000000	-0.000438	-0.001381	0.000000	0.001959	0.001982	0.000000
9.650001	0.008987	0.009326	0.000000	0.005432	0.004272	0.000000	-0.991043	-0.989862	0.000000	0.001154	-0.000481	0.000000	-0.011140	-0.002601	0.000000	0.001889	-0.001051	0.000000
9.700000	0.010895	0.008755	0.000000	0.002518	0.005042	0.000000	-0.990967	-0.990271	0.000000	0.004861	-0.000235	0.000000	0.004316	-0.004504	0.000000	-0.000264	-0.001067	0.000000
9.750000	0.008987	0.009738	0.000000	0.006409	0.004865	0.000000	-0.990097	-0.990048	0.000000	-0.004669	0.001027	0.000000	-0.007671	-0.004040	0.000000	-0.008524	-0.002675	0.000000
9.800000	0.008041	0.009512	0.000000	0.006363	0.004880	0.000000	-0.993011	-0.988886	0.000000	0.001211	0.001505	0.000000	-0.007588	-0.000466	0.000000	-0.000393	-0.002409	0.000000
9.850000	0.011780	0.009296	0.000000	0.003601	0.005087	0.000000	-0.985123	-0.987921	0.000000	0.002577	0.000561	0.000000	0.001883	-0.002857	0.000000	-0.006084	-0.003593	0.000000
9.900001	0.007858	0.009451	0.000000	0.005508	0.004321	0.000000	-0.985229	-0.986935	0.000000	0.003544	0.000755	0.000000	0.006729	-0.003078	0.000000	0.003221	-0.001743	0.000000
9.950000	0.009811	0.009039	0.000000	0.003555	0.003931	0.000000	-0.986145	-0.986557	0.000000	0.000145	-0.001178	0.000000	-0.007640	-0.000250	0.000000	-0.006184	-0.002903	0.000000
10.000000	0.009766	0.008206	0.000000	0.002579	0.002356	0.000000	-0.985169	-0.986566	0.000000	-0.003700	-0.004639	0.000000	-0.008773	-0.002162	0.000000	0.000726	-0.001569	0.000000
10.050000	0.005981	0.009085	0.001671	0.004410	0.003699	0.000035	-0.991119	-0.989084	0.000015	-0.008455	-0.000924	0.000077	0.006551	-0.003539	0.000211	-0.006193	0.005131	0.003339
10.100000	0.007614	0.007745	0.000000	-0.004272	0.004245	0.000000	-0.985169	-0.990680	0.000000	-0.014727	-0.000227	0.000000	-0.007677	-0.004258	0.000000	0.000585	0.006036	0.000000
10.150000	0.012253	0.007364	0.000000	0.012222	0.003442	0.000000	-0.997818	-0.992236	0.000000	0.022117	0.002691	0.000000	-0.000155	-0.005697	0.000000	0.036722	0.006021	0.000000
10.200000	0.003113	0.006927	0.000000	0.006287	0.003268	0.000000	-0.994125	-0.990494	0.000000	0.003629	0.003842	0.000000	-0.011237	-0.008543	0.000000	-0.001660	0.008300	0.000000
10.250000	0.007858	0.006796	0.000000	-0.001434	0.004816	0.000000	-0.992950	-0.991675	0.000000	0.010890	0.009193	0.000000	-0.015965	-0.008545	0.000000	0.000651	0.008546	0.000000
10.300000	0.003799	0.005124	0.000000	0.003540	0.002271	0.000000	-0.982407	-0.990533	0.000000	-0.002700	0.005461	0.000000	-0.007680	-0.009338	0.000000	0.005202	0.001792	0.000000
10.350000	0.006958	0.006274	0.000000	0.003464	0.000726	0.000000	-0.991074	-0.990295	0.000000	0.012029	0.004234	0.000000	-0.007689	-0.008172	0.000000	0.001813	0.001541	0.000000
10.400000	0.003891	0.005884	0.000000	-0.000504	0.001709	0.000000	-0.992111	-0.988776	0.000000	0.003457	0.001784	0.000000	-0.004121	-0.004390	0.000000	0.002954	0.001307	0.000000
10.450000	0.008865	0.006125	0.000000	-0.001434	0.001877	0.000000	-0.992935	-0.990720	0.000000	-0.002508	0.002541	0.000000	-0.005406	-0.002978	0.000000	-0.002915	0.000159	0.000000
10.500000	0.005905	0.006326	0.000000	0.003479	0.002274	0.000000	-0.985352	-0.990524	0.000000	-0.001358	0.000815	0.000000	0.002948	0.000579	0.000000	-0.000519	0.000398	0.000000
10.550000	0.005005	0.004739	0.000000	0.004379	0.003250	0.000000	-0.992127	-0.989212	0.000000	0.001084	0.000371	0.000000	-0.000620	0.003403	0.000000	-0.000538	-0.001677	0.000000
10.600000	0.007965	-0.008661	0.000000	0.005447	0.007611	0.000000	-0.990097	-0.988245	0.000000	0.003398	-0.004557	0.000000	0.010096	0.006103	0.000000	0.003005	0.008956	0.000000
10.650000	-0.004044	-0.024527	0.000000	0.004379	0.006442	0.000000	-0.985550	-0.990009	0.000000	0.001237	-0.004544	0.000000	0.009999	0.004021	0.000000	-0.007420	0.017251	0.000000
10.700000	-0.058136	-0.048853	0.000000	0.020370	0.009311	0.000000	-0.988098	-0.989511	0.000000	-0.027144	-0.005146	0.000000	0.008091	0.002383	0.000000	0.050250	0.048455	0.000000
10.750000	-0.073425	-0.067157	0.000000	-0.002365	0.006360	0.000000	-0.994171	-0.989789	0.000000	-0.001295	-0.007089	0.000000	-0.007462	0.001175	0.000000	0.040960	0.047963	0.000000
10.800000	-0.116623	-0.081006	0.000000	0.018723	0.010626	0.000000	-0.989639	-0.995633	0.000000	-0.001924	-0.014994	0.000000	-0.008810	-0.003896	0.000000	0.155479	0.042306	0.000000
10.850000	-0.083557	-0.090295	0.000000	-0.009308	0.006857	0.000000	-0.991486	-0.991769	0.000000	-0.006317	-0.011509	0.000000	0.004060	0.001470	0.000000	0.000545	0.057399	0.000000
10.900000	-0.073288	-0.083636	0.000000	0.025711	0.011954	0.000000	-1.014771	-0.981909	0.000000	-0.038290	-0.017807	0.000000	-0.015360	0.009756	0.000000	-0.035706	0.028047	0.000000
10.950000	-0.104584	-0.066019	0.000000	0.001526	0.013364	0.000000	-0.968781	-0.979117	0.000000	-0.009717	-0.018436	0.000000	0.034922	0.007003	0.000000	0.125720	-0.012487	0.000000
11.000000	-0.040131	-0.053101	0.000000	0.023117	0.017065	0.000000	-0.944870	-0.978415	0.000000	-0.032785	-0.007797	0.000000	0.033969	-0.013578	0.000000	-0.105800	0.000329	0.000000
11.050000	-0.028534	-0.050223	0.000000	0.025772	0.008221	0.000000	-0.975677	-0.974045	0.000000	-0.005069	-0.001277	0.000000	-0.022578	-0.021159	0.000000	-0.047193	0.030137	0.000000
11.100000	-0.018967	-0.022717	0.000000	0.009201	0.015121	0.000000	-0.987976	-0.978287	0.000000	0.046877	0.005070	0.000000	-0.098845	-0.012830	0.000000	0.064624	-0.024830	0.000000
11.150000	-0.058899	-0.019620	0.000000	-0.018509	0.013751	0.000000	-0.992920	-0.986905	0.000000	-0.005693	0.016546	0.000000	-0.053264	-0.016993	0.000000	0.113336	0.011282	0.000000
11.200000	0.032944	-0.013821	0.000000	0.036026	0.011331	0.000000	-0.989990	-0.989175	0.000000	0.022022	0.017155	0.000000	0.076567	-0.056827	0.000000	-0.149119	-0.028416	0.000000
11.250000	-0.024643	-0.004047	0.000000	0.016266	0.011270	0.000000	-0.987961	-0.988788	0.000000	0.024593	0.018686	0.000000	0.013156	-0.027792	0.000000	0.074762	-0.058692	0.000000
11.300000	0.000458	0.018045	0.000000	0.013672	0.018011	0.000000	-0.987030	-0.988770	0.000000	-0.002026	0.014306	0.000000	-0.221748	0.009571	0.000000	-0.245685	-0.114377	0.000000
11.350000	0.029907	0.019876	0.000000	0.008896	0.003296	0.000000	-0.986038	-0.988376	0.000000	0.054535	0.000994	0.000000	0.046330	0.008281	0.000000	-0.086755	-0.127200	0.000000
11.400000	0.051559	0.027328	0.000000	0.015198	0.002966	0.000000	-0.992828	-0.987985	0.000000	-0.027592	-0.007821	0.000000	0.133551	-0.000900	0.000000	-0.165089	-0.171076	0.000000
11.450000	0.042099	0.046503	0.000000	-0.037552	-0.004733	0.000000	-0.988022	-0.988351	0.000000	-0.044542	-0.009956	0.000000	0.070114	0.013696	0.000000	-0.213235	-0.164485	0.000000
11.500000	0.012619	0.063718	0.000000	0.014618	-0.004590	0.000000	-0.986008	-0.988339	0.000000	-0.019481	-0.020890	0.000000	-0.032746	0.002449	0.000000	-0.144615	-0.147318	0.000000
11.550000	0.096329	0.035608	0.000000	-0.024826	-0.003082	0.000000	-0.988861	-0.986963	0.000000	-0.012698	-0.012335	0.000000	-0.148771	-0.031634	0.000000	-0.212732	-0.001138	0.000000
11.600000	0.115982	0.034067	0.000000	0.009613	-0.001212	0.000000	-0.985977	-0.986765	0.000000	-0.000137	-0.005116	0.000000	-0.009903	-0.043360	0.000000	-0.000918	0.066807	0.000000
11.650000	-0.088989	0.057794	0.000000	0.022736	-0.002029	0.000000	-0.985947	-0.987158	0.000000	0.015182	0.002557	0.000000	-0.036864	-0.039377	0.000000	0.565810	0.081198	0.000000
11.700000	0.034393	0.064233	0.000000	-0.028198	0.009778	0.000000	-0.987030	-0.987762	0.000000	-0.008447	0.008974	0.000000	0.011484	-0.003025	0.000000	0.126490	0.096107	0.000000
11.750000	0.131256	0.067960	0.000000	0.010529	0.009848	0.000000	-0.987976	-0.987372	0.000000	0.018884	0.009663	0.000000	-0.012829	0.001519	0.000000	-0.072660	0.070451	0.000000
11.800000	0.128525	0.086880	0.000000	0.034210	0.009479	0.000000	-0.991882	-0.989536	0.000000	0.019391	-0.009665	0.000000	0.032987	0.011722	0.000000	-0.138186	-0.064033	0.000000
11.850000	0.134613	0.083774	0.000000	0.009964	0.019876	0.000000	-0.984024	-0.990301	0.000000	0.003305	-0.001468	0.000000	0.012815	-0.011055	0.000000	-0.129202	-0.086905	0.000000
11.900000	0.005615	0.059967	0.000000	0.020889	0.019421	0.000000	-0.996765	-0.990509	0.000000	-0.081458	-0.002591	0.000000	0.014154	-0.008055	0.000000	-0.106608	-0.072324	0.000000
11.950000	0.018860	0.035654	0.000000	0.023788	0.014261	0.000000	-0.990860	-0.989386	0.000000	0.032538	-0.006526	0.000000	-0.102405	-0.017306	0.000000	0.012130	-0.043524	0.000000
12.000000	0.012222	0.009915	0.000000	0.008255	0.013553	0.000000	-0.989014	-0.989838	0.000000	0.013272	-0.008382	0.000000	0.002173	-0.021583	0.000000	0.000246	-0.019536	0.000000
12.050000	0.006958	0.009970	0.000000	0.008408	0.010074	0.000000	-0.986267	-0.987930	0.000000	-0.000286	0.007914	0.000000	-0.013266	-0.023978	0.000000	0.005815	0.000653	0.000000
12.100000	0.005920	0.007193	0.000000	0.006424	0.006396	0.000000	-0.986282	-0.987601	0.000000	-0.005974	0.000915	0.000000	-0.008572	-0.001155	0.000000	-0.009263	-0.002659	0.000000
12.150000	0.005890	0.005725	0.000000	0.003494	0.005637	0.000000	-0.987228	-0.987058	0.000000	0.000022	-0.002503	0.000000	0.002180	-0.001380	0.000000	-0.005662	-0.002459	0.000000
12.200000	0.004974	0.006299	0.000000	0.005402	0.004462	0.000000	-0.989212	-0.987424	0.000000	-0.002456	-0.004149	0.000000	0.011708	0.001232	0.000000	-0.004431	-0.004768	0.000000
12.250000	0.004883	0.005914	0.000000	0.004456	0.004449	0.000000	-0.986298	-0.988016	0.000000	-0.003823	-0.004156	0.000000	0.001050	0.001949	0.000000	0.001248	-0.004530	0.000000
12.300000	0.009827	0.007147	0.000000	0.002533	0.004630	0.000000	-0.988098	-0.990125	0.000000	-0.008514	-0.002956	0.000000	-0.000209	0.002910	0.000000	-0.005731	-0.003821	0.000000
12.350000	0.003998	0.007358	0.000000	0.006363	0.004822	0.000000	-0.989243	-0.990509	0.000000	-0.006009	-0.002018	0.000000	-0.004985	0.002925	0.000000	-0.008074	-0.002427	0.000000
12.400000	0.012054	0.007367	0.000000	0.004395	0.004816	0.000000	-0.997772	-0.990900	0.000000	0.006021	-0.000305	0.000000	0.006986	0.003879	0.000000	-0.002115	-0.002641	0.000000
12.450000	0.006027	0.006995	0.000000	0.006363	0.005399	0.000000	-0.991135	-0.991299	0.000000	0.002235	0.002378	0.000000	0.011784	0.003883	0.000000	0.002536	-0.002626	0.000000
12.500000	0.004929	0.007199	0.000000	0.004425	0.005597	0.000000	-0.988251	-0.991296	0.000000	0.004741	0.004073	0.000000	0.005817	0.003415	0.000000	0.000181	-0.002158	0.000000
12.550000	0.007965	0.005997	0.000791	0.005447	0.006192	0.000008	-0.990097	-0.989776	0.000006	0.004901	0.000435	0.000058	-0.000185	0.001024	0.000059	-0.005657	-0.002894	0.000431
12.600000	0.005020	0.006561	0.000000	0.007355	0.005820	0.000000	-0.989227	-0.988788	0.000000	0.002468	0.001186	0.000000	-0.007328	-0.000409	0.000000	-0.005735	-0.003597	0.000000
12.650000	0.006042	0.007547	0.000000	0.007370	0.005835	0.000000	-0.990173	-0.988565	0.000000	-0.012171	-0.000989	0.000000	-0.004970	-0.003274	0.000000	-0.005795	-0.004330	0.000000
12.700000	0.008850	0.007117	0.000000	0.004501	0.004855	0.000000	-0.986191	-0.987988	0.000000	0.005991	-0.001741	0.000000	0.004621	-0.001602	0.000000	-0.000980	-0.003625	0.000000
12.750000	0.009857	0.007480	0.000000	0.004501	0.004288	0.000000	-0.987137	-0.987000	0.000000	-0.006133	-0.002755	0.000000	-0.008508	-0.000877	0.000000	-0.003481	-0.002236	0.000000
12.800000	0.005814	0.007654	0.000000	0.000549	0.003705	0.000000	-0.987213	-0.986603	0.000000	0.001140	-0.001547	0.000000	0.008175	-0.001822	0.000000	-0.002132	-0.001775	0.000000
12.850000	0.006836	0.006473	0.000000	0.004517	0.003293	0.000000	-0.984283	-0.987408	0.000000	-0.002602	-0.001540	0.000000	-0.003700	-0.003252	0.000000	0.001210	-0.002019	0.000000
12.900000	0.006912	0.005884	0.000000	0.004456	0.003284	0.000000	-0.988190	-0.987619	0.000000	-0.006131	-0.000840	0.000000	-0.009697	-0.001812	0.000000	-0.003492	-0.000845	0.000000
12.950000	0.002945	0.006699	0.000000	0.002441	0.004068	0.000000	-0.990219	-0.987991	0.000000	0.006028	-0.000341	0.000000	-0.002527	-0.004174	0.000000	-0.002202	-0.001105	0.000000
13.000000	0.006912	0.006903	0.000000	0.004456	0.003470	0.000000	-0.988190	-0.989151	0.000000	-0.002635	0.000882	0.000000	-0.001309	-0.005105	0.000000	0.002388	-0.001116	0.000000
13.050000	0.009888	0.007132	0.000000	0.004471	0.004449	0.000000	-0.989075	-0.989539	0.000000	0.003633	0.002380	0.000000	-0.003637	-0.002924	0.000000	-0.003429	-0.002020	0.000000
13.100000	0.007858	0.007526	0.000000	0.001526	0.004654	0.000000	-0.990082	-0.989142	0.000000	0.003513	0.000933	0.000000	-0.008355	-0.000741	0.000000	0.001155	-0.002247	0.000000
13.150000	0.008057	0.007162	0.000000	0.009354	0.004626	0.000000	-0.990128	-0.990707	0.000000	0.001363	0.001007	0.000000	0.001208	-0.000241	0.000000	-0.008013	-0.004562	0.000000
13.200000	0.004913	0.006186	0.000000	0.003464	0.004813	0.000000	-0.988235	-0.990930	0.000000	-0.001208	-0.000415	0.000000	0.008387	0.000749	0.000000	-0.003335	-0.005483	0.000000
13.250000	0.005096	0.005807	0.000000	0.004318	0.005392	0.000000	-0.996018	-0.990945	0.000000	-0.002266	-0.001599	0.000000	0.001192	0.001741	0.000000	-0.009190	-0.006170	0.000000
13.300000	0.005005	0.005798	0.000000	0.005402	0.005002	0.000000	-0.990189	-0.990942	0.000000	-0.003475	-0.002811	0.000000	0.001312	0.002000	0.000000	-0.008031	-0.006173	0.000000
13.350000	0.005966	0.006216	0.000000	0.004425	0.005392	0.000000	-0.990158	-0.991513	0.000000	-0.002407	-0.002830	0.000000	-0.003394	0.000630	0.000000	-0.002284	-0.004789	0.000000
13.400000	0.008011	0.006760	0.000000	0.007401	0.004639	0.000000	-0.990112	-0.990128	0.000000	-0.004697	-0.001168	0.000000	0.002500	0.000699	0.000000	-0.008028	-0.002457	0.000000
13.450000	0.007004	0.007736	0.000000	0.005417	0.004059	0.000000	-0.991089	-0.990289	0.000000	-0.001306	0.000274	0.000000	0.001538	-0.000693	0.000000	0.003586	-0.001298	0.000000
13.500000	0.007812	0.007535	0.000000	0.000549	0.003461	0.000000	-0.989090	-0.990872	0.000000	0.006044	0.001961	0.000000	0.001539	-0.002060	0.000000	0.002470	0.000102	0.000000
13.550000	0.009888	0.007315	0.000000	0.002502	0.002872	0.000000	-0.990997	-0.990488	0.000000	0.003735	0.002673	0.000000	-0.005647	-0.002953	0.000000	-0.002236	0.001501	0.000000
13.600000	0.004959	0.008078	0.000000	0.001434	0.002100	0.000000	-0.993073	-0.990076	0.000000	0.006030	0.003656	0.000000	-0.010230	-0.003167	0.000000	0.004717	0.001512	0.000000
13.650000	0.006912	0.007721	0.000000	0.004456	0.003067	0.000000	-0.988190	-0.990677	0.000000	-0.001140	0.000474	0.000000	-0.001963	-0.003598	0.000000	-0.001033	0.002432	0.000000
13.700000	0.010818	0.006760	0.000000	0.001556	0.003635	0.000000	-0.989029	-0.991290	0.000000	0.003612	-0.001250	0.000000	0.000466	-0.003787	0.000000	0.003643	0.003594	0.000000
13.750000	0.006027	0.006760	0.000000	0.005386	0.003833	0.000000	-0.992096	-0.991098	0.000000	-0.009865	-0.002423	0.000000	-0.000618	-0.000929	0.000000	0.007069	0.002001	0.000000
13.800000	0.005081	0.006583	0.000000	0.005341	0.004019	0.000000	-0.994064	-0.991879	0.000000	-0.004889	-0.001943	0.000000	-0.006592	0.000068	0.000000	0.003572	0.002724	0.000000
13.850000	0.004959	0.005203	0.000000	0.002426	0.004401	0.000000	-0.992111	-0.991724	0.000000	0.000165	-0.004380	0.000000	0.004063	-0.003463	0.000000	-0.003245	0.003159	0.000000
13.900000	0.006027	0.005402	0.000000	0.005386	0.004404	0.000000	-0.992096	-0.991718	0.000000	0.001262	-0.001692	0.000000	0.003022	-0.002012	0.000000	0.002583	0.003196	0.000000
13.950000	0.003922	0.005383	0.000000	0.003464	0.004019	0.000000	-0.988251	-0.991327	0.000000	-0.008571	-0.001637	0.000000	-0.017192	-0.002228	0.000000	0.005816	0.001594	0.000000
14.000000	0.007019	0.005994	0.000000	0.005402	0.004218	0.000000	-0.992065	-0.991892	0.000000	0.003573	-0.002101	0.000000	0.006637	-0.002435	0.000000	0.007256	0.001146	0.000000
14.050000	0.004990	0.005988	0.000000	0.003418	0.004019	0.000000	-0.992111	-0.991892	0.000000	-0.004615	-0.003989	0.000000	-0.007672	-0.001724	0.000000	-0.004440	-0.001158	0.000000
14.100000	0.008011	0.006403	0.000000	0.003418	0.004410	0.000000	-0.994934	-0.992273	0.000000	-0.002154	-0.002244	0.000000	0.003031	0.001143	0.000000	-0.005486	-0.002496	0.000000
14.150000	0.005997	0.006766	0.000000	0.004395	0.004233	0.000000	-0.992096	-0.990903	0.000000	-0.008176	-0.002445	0.000000	0.006577	-0.002181	0.000000	-0.008935	-0.003901	0.000000
14.200000	0.005997	0.006741	0.000000	0.005417	0.004248	0.000000	-0.990158	-0.989737	0.000000	0.000152	-0.000304	0.000000	-0.002857	-0.000253	0.000000	-0.000876	-0.002016	0.000000
14.250000	0.008835	0.005920	0.000000	0.004517	0.003860	0.000000	-0.985214	-0.988788	0.000000	0.002567	0.001349	0.000000	-0.009983	-0.001417	0.000000	0.000230	-0.000158	0.000000
14.300000	0.004868	0.005893	0.000000	0.003494	0.003281	0.000000	-0.986282	-0.988202	0.000000	0.006092	0.001542	0.000000	0.001965	-0.003301	0.000000	0.004985	0.001680	0.000000
14.350000	0.003906	0.006454	0.000000	0.001480	0.002310	0.000000	-0.990189	-0.987793	0.000000	0.006111	0.002286	0.000000	-0.002789	-0.003300	0.000000	0.003804	0.000998	0.000000
14.400000	0.005859	0.006683	0.000000	0.001495	0.002493	0.000000	-0.989166	-0.989148	0.000000	-0.007213	0.003251	0.000000	-0.002841	0.001944	0.000000	0.000259	0.001058	0.000000
14.450000	0.008804	0.007480	0.000000	0.000565	0.002695	0.000000	-0.988113	-0.989130	0.000000	0.003873	0.001112	0.000000	-0.002851	0.000260	0.000000	-0.004289	-0.001276	0.000000
14.500000	0.009979	0.007486	0.000000	0.005432	0.002890	0.000000	-0.991989	-0.989130	0.000000	0.007391	0.003566	0.000000	0.016237	0.005260	0.000000	0.000531	-0.002136	0.000000
14.550000	0.008850	0.009595	0.000000	0.004501	0.001175	0.000000	-0.986191	-0.987698	0.000000	-0.004601	0.010592	0.000000	-0.006455	0.011001	0.000000	-0.006683	-0.000650	0.000000
14.600000	0.003937	0.020514	0.000000	0.002457	0.001886	0.000000	-0.990189	-0.987988	0.000000	0.018379	0.019963	0.000000	0.022208	0.021059	0.000000	-0.000496	0.004355	0.000000
14.650000	0.016403	0.025214	0.000000	-0.007080	-0.000412	0.000000	-0.982010	-0.988037	0.000000	0.027916	0.020025	0.000000	0.025866	0.016844	0.000000	0.007688	0.011033	0.000000
14.700000	0.063400	0.049783	0.000000	0.004120	-0.001315	0.000000	-0.989563	-0.988730	0.000000	0.050730	0.019281	0.000000	0.047438	0.014384	0.000000	0.020736	-0.025083	0.000000
14.750000	0.033478	0.071378	0.000000	-0.006058	0.002310	0.000000	-0.992233	-0.984094	0.000000	0.007700	0.012490	0.000000	-0.004836	0.009123	0.000000	0.033920	-0.053857	0.000000
14.800000	0.131699	0.099960	0.000000	-0.000015	0.004590	0.000000	-0.989654	-0.983539	0.000000	-0.008318	0.002317	0.000000	-0.018755	0.010198	0.000000	-0.187266	-0.065930	0.000000
14.850000	0.111908	0.103943	0.000000	0.020584	0.006607	0.000000	-0.967010	-0.983221	0.000000	-0.015578	-0.006270	0.000000	-0.004098	0.015361	0.000000	-0.144367	-0.073561	0.000000
14.900000	0.159317	0.108438	0.000000	0.004318	0.016852	0.000000	-0.979233	-0.983359	0.000000	-0.022949	-0.012585	0.000000	0.031240	0.016296	0.000000	-0.052676	-0.074741	0.000000
14.950000	0.083313	0.086795	0.000000	0.014206	0.007019	0.000000	-0.987976	-0.983426	0.000000	0.007795	-0.018675	0.000000	0.073253	0.029877	0.000000	-0.017417	0.006338	0.000000
15.000000	0.055954	0.069110	0.000000	0.045166	-0.006934	0.000000	-0.992920	-0.987616	0.000000	-0.023873	-0.025607	0.000000	-0.000160	0.016277	0.000000	0.028018	0.055698	0.000000
15.050000	0.023483	0.041870	0.000480	-0.049179	-0.009564	0.000067	-0.989990	-0.989175	0.000002	-0.038771	-0.020459	0.000056	0.049153	0.033740	0.000660	0.218132	0.090599	0.001658
15.100000	0.023483	0.026102	0.000000	-0.049179	-0.016818	0.000000	-0.987961	-0.988788	0.000000	-0.050234	-0.018032	0.000000	-0.072099	0.037886	0.000000	0.102433	0.127215	0.000000
15.150000	0.023117	0.019681	0.000000	-0.008835	-0.024933	0.000000	-0.987030	-0.988770	0.000000	0.002789	-0.009036	0.000000	0.118551	0.052983	0.000000	0.121828	0.136895	0.000000
15.200000	0.004471	0.009772	0.000000	-0.022064	-0.015433	0.000000	-0.986038	-0.988376	0.000000	0.019927	0.004391	0.000000	0.093985	0.016986	0.000000	0.165663	0.128091	0.000000
15.250000	0.023849	0.020975	0.000000	0.004593	-0.008218	0.000000	-0.992828	-0.987985	0.000000	0.021110	0.008001	0.000000	0.075326	0.052924	0.000000	0.076418	0.101606	0.000000
15.300000	-0.026062	0.013516	0.000000	-0.001678	-0.005307	0.000000	-0.988022	-0.988351	0.000000	0.028364	0.007395	0.000000	-0.130833	0.011001	0.000000	0.174111	0.097757	0.000000
15.350000	0.079498	0.024371	0.000000	-0.013107	-0.004562	0.000000	-0.986008	-0.988339	0.000000	-0.032187	-0.006539	0.000000	0.107591	-0.039635	0.000000	-0.029992	0.054200	0.000000
15.400000	-0.014175	0.018851	0.000000	0.005722	0.000925	0.000000	-0.988861	-0.986963	0.000000	-0.000238	-0.012631	0.000000	-0.091065	-0.022842	0.000000	0.102585	0.044155	0.000000
15.450000	0.058746	0.029797	0.000000	-0.018341	0.003256	0.000000	-0.985977	-0.986954	0.000000	-0.049744	-0.016499	0.000000	-0.159195	0.000848	0.000000	-0.052121	0.033023	0.000000
15.500000	-0.003754	0.022067	0.000000	0.032028	0.005026	0.000000	-0.985947	-0.988336	0.000000	-0.009350	-0.015554	0.000000	0.159295	-0.007315	0.000000	0.026193	0.052185	0.000000
15.550000	0.028671	0.022388	0.000000	0.009979	-0.004794	0.000000	-0.987976	-0.988562	0.000000	0.009025	-0.012932	0.000000	-0.012387	0.009901	0.000000	0.118447	0.035491	0.000000
15.600000	0.040848	0.008896	0.000000	-0.004257	-0.004141	0.000000	-0.992920	-0.988959	0.000000	-0.027460	-0.008710	0.000000	0.066778	0.063575	0.000000	0.065820	0.049437	0.000000
15.650000	-0.012573	0.004300	0.000000	-0.043381	-0.013510	0.000000	-0.989990	-0.989175	0.000000	0.012869	-0.011365	0.000000	-0.004983	0.017772	0.000000	0.019116	0.040003	0.000000
15.700000	-0.008713	0.004330	0.000000	-0.015076	-0.010803	0.000000	-0.987961	-0.988788	0.000000	-0.028634	-0.013452	0.000000	0.109173	-0.010065	0.000000	0.017608	-0.009294	0.000000
15.750000	-0.026733	-0.020108	0.000000	-0.014816	-0.010645	0.000000	-0.987030	-0.988770	0.000000	-0.022626	-0.010035	0.000000	-0.069721	-0.040616	0.000000	-0.020977	-0.017877	0.000000
15.800000	0.028824	-0.023965	0.000000	0.023514	-0.000424	0.000000	-0.986038	-0.988376	0.000000	-0.001407	-0.016182	0.000000	-0.151574	-0.050160	0.000000	-0.128038	-0.016151	0.000000
15.850000	-0.081345	-0.028714	0.000000	-0.003464	0.004083	0.000000	-0.992828	-0.987985	0.000000	-0.010379	-0.007733	0.000000	-0.085974	-0.078228	0.000000	0.022906	-0.012429	0.000000
15.900000	-0.031860	-0.028287	0.000000	0.007721	0.005460	0.000000	-0.988022	-0.988351	0.000000	-0.017865	0.002704	0.000000	-0.052703	-0.059657	0.000000	0.027747	-0.011055	0.000000
15.950000	-0.032455	-0.031638	0.000000	0.007462	0.001837	0.000000	-0.986008	-0.988339	0.000000	0.013610	0.001959	0.000000	-0.031167	-0.028596	0.000000	0.036216	0.006544	0.000000
16.000000	-0.024597	-0.019366	0.000000	-0.007935	0.001193	0.000000	-0.988861	-0.986963	0.000000	0.029563	0.004427	0.000000	0.023132	-0.009611	0.000000	-0.014107	0.004605	0.000000
16.049999	0.012070	-0.028418	0.000000	0.005402	-0.007098	0.000000	-0.985977	-0.986765	0.000000	-0.005133	0.006520	0.000000	0.003732	0.007053	0.000000	-0.040043	0.007743	0.000000
16.100000	-0.019989	-0.038852	0.000000	-0.006683	-0.001230	0.000000	-0.985947	-0.987158	0.000000	0.001961	0.007113	0.000000	0.008949	0.014136	0.000000	0.013212	0.030684	0.000000
16.150000	-0.077118	-0.030310	0.000000	-0.033737	0.001434	0.000000	-0.987030	-0.987762	0.000000	-0.007400	-0.003834	0.000000	0.030618	0.008449	0.000000	0.043435	0.038405	0.000000
16.200001	-0.084625	-0.029031	0.000000	0.036804	0.000720	0.000000	-0.987976	-0.987372	0.000000	0.016574	-0.001860	0.000000	0.004247	0.003516	0.000000	0.150922	0.046691	0.000000
16.250000	0.018112	-0.022415	0.000000	0.005386	0.002930	0.000000	-0.991882	-0.989536	0.000000	-0.025169	0.001373	0.000000	-0.005300	0.004208	0.000000	0.024500	0.044401	0.000000
16.299999	0.018463	0.026096	0.000000	0.001831	-0.010602	0.000000	-0.984024	-0.990301	0.000000	0.004736	0.003423	0.000000	-0.020934	-0.023852	0.000000	0.001386	0.018325	0.000000
16.350000	0.013092	0.045590	0.000000	0.004364	-0.017059	0.000000	-0.996765	-0.990509	0.000000	0.018123	0.003725	0.000000	0.012408	-0.019838	0.000000	0.001763	-0.011254	0.000000
16.400000	0.165436	0.045142	0.000000	-0.101395	-0.017419	0.000000	-0.990860	-0.990109	0.000000	0.002852	0.008721	0.000000	-0.109682	-0.020584	0.000000	-0.086946	-0.015629	0.000000
16.450001	0.012848	0.044064	0.000000	0.004517	-0.016513	0.000000	-0.989014	-0.992661	0.000000	0.018081	0.005804	0.000000	0.024318	-0.017973	0.000000	0.003027	-0.016085	0.000000
16.500000	0.015869	0.044614	0.000000	0.003586	-0.016473	0.000000	-0.989883	-0.990900	0.000000	-0.000185	0.002412	0.000000	-0.009028	-0.022743	0.000000	0.002623	-0.016841	0.000000
16.549999	0.013077	0.014325	0.000000	0.006363	0.004300	0.000000	-0.996780	-0.992072	0.000000	-0.009850	0.001371	0.000000	-0.007882	-0.001679	0.000000	-0.000891	-0.001004	0.000000
16.600000	0.015839	0.014694	0.000000	0.004562	0.003729	0.000000	-0.987961	-0.991275	0.000000	0.001161	-0.001989	0.000000	-0.011443	-0.007647	0.000000	-0.002019	-0.002928	0.000000
16.650000	0.013992	0.014102	0.000000	0.002472	0.003311	0.000000	-0.996719	-0.992261	0.000000	-0.002350	-0.001047	0.000000	-0.004358	-0.004298	0.000000	-0.007759	-0.001735	0.000000
16.700001	0.014694	0.013867	0.000000	0.001663	0.002939	0.000000	-0.985031	-0.990906	0.000000	0.001281	-0.000539	0.000000	-0.005522	-0.005013	0.000000	-0.006593	-0.002433	0.000000
16.750000	0.012909	0.013675	0.000000	0.001495	0.002737	0.000000	-0.994812	-0.991486	0.000000	0.004526	-0.001791	0.000000	0.007714	-0.002619	0.000000	0.008585	-0.001262	0.000000
16.799999	0.011902	0.013443	0.000000	0.004501	0.002954	0.000000	-0.990005	-0.989746	0.000000	-0.007312	-0.001115	0.000000	-0.011454	-0.002593	0.000000	-0.004381	0.000824	0.000000
16.850000	0.014877	0.013290	0.000000	0.003555	0.003723	0.000000	-0.990860	-0.990729	0.000000	-0.005101	-0.002916	0.000000	0.000527	-0.001132	0.000000	0.003838	0.004298	0.000000
16.900000	0.012833	0.013278	0.000000	0.003555	0.004132	0.000000	-0.988022	-0.989563	0.000000	0.001033	-0.002116	0.000000	-0.004230	-0.000674	0.000000	0.002672	0.001762	0.000000
16.950001	0.013931	0.013684	0.000000	0.005508	0.004727	0.000000	-0.989945	-0.989166	0.000000	-0.007726	0.001047	0.000000	0.001782	0.001478	0.000000	0.010776	0.002030	0.000000
17.000000	0.012848	0.013525	0.000000	0.003540	0.005292	0.000000	-0.988983	-0.990344	0.000000	0.008525	0.002771	0.000000	0.010003	0.002404	0.000000	-0.004099	0.001087	0.000000
17.049999	0.013931	0.013321	0.000000	0.007477	0.005093	0.000000	-0.988022	-0.990350	0.000000	0.008504	0.002563	0.000000	-0.000695	0.000940	0.000000	-0.003039	-0.000582	0.000000
17.100000	0.014084	0.013089	0.000000	0.006378	0.004712	0.000000	-0.996750	-0.989380	0.000000	0.003517	0.003392	0.000000	0.005157	0.002074	0.000000	-0.000876	-0.004536	0.000000
17.150000	0.011810	0.013098	0.000000	0.002563	0.004904	0.000000	-0.988052	-0.989578	0.000000	-0.000003	0.002180	0.000000	-0.011549	-0.002237	0.000000	-0.005675	-0.005080	0.000000
17.200001	0.012772	0.012671	0.000000	0.003601	0.004126	0.000000	-0.985092	-0.989194	0.000000	-0.003585	0.000209	0.000000	0.007456	-0.003447	0.000000	-0.008993	-0.004675	0.000000
17.250000	0.012894	0.013031	0.000000	0.004501	0.003564	0.000000	-0.989975	-0.988013	0.000000	0.002467	-0.001746	0.000000	-0.011554	-0.006303	0.000000	-0.006818	-0.004480	0.000000
17.299999	0.011795	0.013852	0.000000	0.003586	0.003558	0.000000	-0.986099	-0.989154	0.000000	-0.001351	-0.001080	0.000000	-0.006746	-0.004161	0.000000	-0.001011	-0.002407	0.000000
17.350000	0.015884	0.013684	0.000000	0.003571	0.003732	0.000000	-0.990845	-0.990524	0.000000	-0.006259	0.000097	0.000000	-0.009123	-0.005832	0.000000	0.000097	-0.001059	0.000000
17.400000	0.015915	0.013480	0.000000	0.002533	0.003339	0.000000	-0.993759	-0.990720	0.000000	0.003330	0.001076	0.000000	-0.000838	-0.003951	0.000000	0.004693	-0.001532	0.000000
17.450001	0.011932	0.013309	0.000000	0.004471	0.003516	0.000000	-0.991943	-0.991696	0.000000	0.002297	0.000144	0.000000	-0.000901	-0.004240	0.000000	-0.002255	-0.003674	0.000000
17.500000	0.011871	0.012918	0.000000	0.002533	0.003699	0.000000	-0.990951	-0.991904	0.000000	0.007363	0.000375	0.000000	-0.002145	-0.003081	0.000000	-0.009180	-0.003714	0.000000
17.549999	0.010941	0.012326	0.001249	0.004471	0.004480	0.000166	-0.990982	-0.991342	0.007378	-0.006010	-0.001337	0.011833	-0.008193	-0.003808	0.018236	-0.011722	-0.003750	0.008972
17.600000	0.013931	0.012720	0.000000	0.004486	0.004489	0.000000	-0.991882	-0.990942	0.000000	-0.005105	-0.001621	0.000000	-0.003326	-0.003818	0.000000	-0.000103	-0.002633	0.000000
17.650000	0.012955	0.013696	0.000000	0.006439	0.004507	0.000000	-0.990951	-0.990140	0.000000	-0.005228	-0.003649	0.000000	-0.004474	-0.004771	0.000000	0.004513	-0.000146	0.000000
17.700001	0.013901	0.013702	0.000000	0.004517	0.004706	0.000000	-0.989945	-0.990140	0.000000	0.000876	-0.002044	0.000000	-0.000953	-0.003564	0.000000	0.003329	0.003315	0.000000
17.750000	0.016754	0.012927	0.000000	0.002625	0.004489	0.000000	-0.986938	-0.991324	0.000000	-0.002778	0.000148	0.000000	-0.006909	-0.002389	0.000000	0.003255	0.003076	0.000000
17.799999	0.010971	0.012289	0.000000	0.005463	0.003320	0.000000	-0.990982	-0.990555	0.000000	0.002016	0.002341	0.000000	-0.002157	-0.001215	0.000000	0.005581	0.002838	0.000000
17.850000	0.010056	0.012112	0.000000	0.003403	0.003107	0.000000	-0.997803	-0.991916	0.000000	0.005856	0.004065	0.000000	0.002546	-0.000759	0.000000	-0.001296	0.001904	0.000000
17.900000	0.009766	0.011145	0.000000	0.000595	0.003284	0.000000	-0.987106	-0.992914	0.000000	0.005733	0.005076	0.000000	0.001398	-0.000787	0.000000	0.003320	0.000269	0.000000
17.950001	0.013016	0.010925	0.000000	0.003448	0.003088	0.000000	-0.996750	-0.992340	0.000000	0.009497	0.006284	0.000000	0.001326	0.000876	0.000000	-0.001338	0.000512	0.000000
18.000000	0.011917	0.011102	0.000000	0.003510	0.002905	0.000000	-0.991928	-0.991360	0.000000	0.002279	0.005094	0.000000	-0.007046	0.000849	0.000000	-0.004924	-0.000903	0.000000
18.049999	0.009872	0.011725	0.000000	0.004486	0.003494	0.000000	-0.988113	-0.991931	0.000000	0.008056	0.003924	0.000000	0.006158	0.000102	0.000000	0.006796	-0.003019	0.000000
18.100000	0.010941	0.011700	0.000000	0.002487	0.003510	0.000000	-0.992905	-0.990765	0.000000	-0.000093	0.001973	0.000000	0.002411	0.001996	0.000000	-0.008372	-0.003254	0.000000
18.150000	0.012878	0.011896	0.000000	0.003540	0.003708	0.000000	-0.989960	-0.990375	0.000000	-0.000120	0.000726	0.000000	-0.002339	0.004608	0.000000	-0.007258	-0.002561	0.000000
18.200001	0.012894	0.012473	0.000000	0.003525	0.003329	0.000000	-0.990921	-0.989966	0.000000	-0.000256	-0.001200	0.000000	0.010794	0.003395	0.000000	-0.002512	-0.003758	0.000000
18.250000	0.012894	0.012665	0.000000	0.004501	0.003931	0.000000	-0.989975	-0.989191	0.000000	-0.003956	-0.002185	0.000000	0.006017	0.003153	0.000000	-0.001460	-0.003542	0.000000
18.299999	0.012756	0.012674	0.000000	0.002594	0.004321	0.000000	-0.986069	-0.989194	0.000000	-0.001574	-0.001754	0.000000	0.000091	0.005068	0.000000	0.000813	-0.001687	0.000000
18.350000	0.011902	0.013504	0.000000	0.005493	0.004703	0.000000	-0.989029	-0.990537	0.000000	-0.005017	-0.002234	0.000000	0.001203	0.003865	0.000000	-0.007294	-0.002180	0.000000
18.400000	0.012924	0.014099	0.000000	0.005493	0.004520	0.000000	-0.989975	-0.990518	0.000000	0.002033	-0.002491	0.000000	0.007232	0.000534	0.000000	0.002016	-0.001756	0.000000
18.450001	0.017044	0.014124	0.000000	0.005432	0.004709	0.000000	-0.997635	-0.991296	0.000000	-0.002658	-0.003141	0.000000	0.004782	-0.000453	0.000000	-0.004974	-0.005023	0.000000
18.500000	0.015869	0.014905	0.000000	0.003586	0.004129	0.000000	-0.989883	-0.991272	0.000000	-0.005240	-0.003403	0.000000	-0.010639	-0.000693	0.000000	0.000656	-0.004579	0.000000
18.549999	0.012878	0.015280	0.000000	0.003540	0.003751	0.000000	-0.989960	-0.990674	0.000000	-0.004825	-0.002648	0.000000	-0.004845	-0.003558	0.000000	-0.015521	-0.005534	0.000000
18.600000	0.015808	0.014832	0.000000	0.002594	0.002985	0.000000	-0.988907	-0.989127	0.000000	-0.006328	-0.002440	0.000000	0.000007	-0.004026	0.000000	-0.005073	-0.004393	0.000000
18.650000	0.014801	0.014053	0.000000	0.003601	0.003552	0.000000	-0.986984	-0.989542	0.000000	0.005813	0.000018	0.000000	-0.007093	-0.002367	0.000000	-0.002756	-0.005302	0.000000
18.700001	0.014801	0.014648	0.000000	0.001602	0.003754	0.000000	-0.989899	-0.989334	0.000000	-0.001619	0.000447	0.000000	0.002442	-0.001634	0.000000	0.000731	-0.003216	0.000000
18.750000	0.011978	0.014038	0.000000	0.006424	0.003357	0.000000	-0.991959	-0.989154	0.000000	0.007048	0.003070	0.000000	-0.002346	-0.002089	0.000000	-0.003892	-0.001134	0.000000
18.799999	0.015854	0.013086	0.000000	0.004547	0.004309	0.000000	-0.988922	-0.990161	0.000000	-0.002680	0.000599	0.000000	-0.001182	-0.000181	0.000000	-0.005092	-0.000216	0.000000
18.850000	0.012756	0.013126	0.000000	0.000610	0.004684	0.000000	-0.988007	-0.991519	0.000000	0.006787	0.000392	0.000000	-0.002264	-0.001860	0.000000	0.005337	-0.001626	0.000000
18.900000	0.010040	0.012927	0.000000	0.008362	0.004684	0.000000	-0.992020	-0.991327	0.000000	-0.006540	-0.000364	0.000000	0.002445	-0.000902	0.000000	0.001835	-0.000937	0.000000
18.950001	0.014999	0.012869	0.000000	0.003479	0.004129	0.000000	-0.996689	-0.989188	0.000000	-0.002657	0.000366	0.000000	-0.005952	0.001953	0.000000	-0.006318	-0.001147	0.000000
19.000000	0.010986	0.012286	0.000000	0.006424	0.004510	0.000000	-0.990997	-0.989398	0.000000	0.003268	-0.003785	0.000000	0.002442	0.001711	0.000000	-0.000445	-0.001179	0.000000
19.049999	0.015564	0.011884	0.000000	0.001770	0.004907	0.000000	-0.978226	-0.988632	0.000000	0.000973	-0.006411	0.000000	0.013097	-0.005213	0.000000	-0.006146	-0.003346	0.000000
19.100000	0.009842	0.011786	0.000000	0.002518	0.008417	0.000000	-0.989059	-0.989246	0.000000	-0.013968	-0.017222	0.000000	-0.003478	-0.013531	0.000000	0.005176	-0.000481	0.000000
19.150000	0.008026	0.010498	0.000000	0.010345	0.017551	0.000000	-0.988190	-0.992844	0.000000	-0.019668	-0.025031	0.000000	-0.032174	-0.021870	0.000000	-0.008999	-0.000371	0.000000
19.200001	0.014511	0.005777	0.000000	0.021027	0.015289	0.000000	-0.999756	-0.997226	0.000000	-0.056714	-0.027394	0.000000	-0.047543	-0.028168	0.000000	0.008009	-0.012479	0.000000
19.250000	0.004547	0.001480	0.000000	0.052094	0.002884	0.000000	-1.008987	-1.014358	0.000000	-0.035777	-0.040218	0.000000	-0.039254	-0.016253	0.000000	0.000102	-0.035120	0.000000
19.299999	-0.008041	-0.002008	0.000000	-0.009537	0.004596	0.000000	-1.000137	-1.044012	0.000000	-0.010841	-0.034024	0.000000	-0.018394	0.020287	0.000000	-0.066683	-0.048872	0.000000
19.350000	-0.011642	0.020746	0.000000	-0.059509	-0.003641	0.000000	-1.074722	-1.107879	0.000000	-0.078088	-0.059017	0.000000	0.056100	0.035974	0.000000	-0.108029	-0.100008	0.000000
19.400000	-0.009415	0.023254	0.000000	0.018906	-0.007462	0.000000	-1.136459	-1.146664	0.000000	0.011303	-0.036870	0.000000	0.150524	0.077036	0.000000	-0.077761	-0.090030	0.000000
19.450001	0.128281	0.031686	0.000000	-0.020157	-0.019949	0.000000	-1.319092	-1.194363	0.000000	-0.181681	-0.064745	0.000000	0.030894	0.084560	0.000000	-0.247670	-0.069757	0.000000
19.500000	0.017090	0.041901	0.000000	0.032989	-0.013535	0.000000	-1.202911	-1.220379	0.000000	0.074959	-0.045852	0.000000	0.166054	0.059755	0.000000	0.049993	-0.000466	0.000000
19.549999	0.034119	0.046658	0.000000	-0.071976	-0.027658	0.000000	-1.238632	-1.227347	0.000000	-0.150217	0.007877	0.000000	0.019228	0.062462	0.000000	0.034680	0.079220	0.000000
19.600000	0.039429	0.011566	0.000000	-0.027435	-0.021780	0.000000	-1.204803	-1.182846	0.000000	0.016374	0.106313	0.000000	-0.067926	0.099967	0.000000	0.238430	0.183070	0.000000
19.650000	0.014374	0.012451	0.000000	-0.051712	-0.025616	0.000000	-1.171295	-1.163351	0.000000	0.279948	0.129361	0.000000	0.164061	0.144211	0.000000	0.320668	0.150279	0.000000
19.700001	-0.047180	0.027310	0.000000	0.009232	-0.003326	0.000000	-1.096588	-1.118597	0.000000	0.310499	0.212810	0.000000	0.218416	0.210131	0.000000	0.271580	0.057166	0.000000
19.750000	0.021515	0.048825	0.000000	0.013809	0.015326	0.000000	-1.105438	-1.073828	0.000000	0.190201	0.254296	0.000000	0.387277	0.341646	0.000000	-0.113965	-0.092041	0.000000
19.799999	0.108414	0.082315	0.000000	0.039474	0.035104	0.000000	-1.014862	-1.013391	0.000000	0.267028	0.262214	0.000000	0.348826	0.433972	0.000000	-0.430882	-0.253128	0.000000
19.850000	0.147003	0.124188	0.000000	0.065826	0.029892	0.000000	-0.980957	-0.956247	0.000000	0.223803	0.267185	0.000000	0.589648	0.477777	0.000000	-0.507608	-0.357751	0.000000
19.900000	0.181824	0.136905	0.000000	0.047180	0.021762	0.000000	-0.869110	-0.873630	0.000000	0.319536	0.336561	0.000000	0.625696	0.477864	0.000000	-0.484768	-0.333765	0.000000
19.950001	0.162186	0.146564	0.000000	-0.016830	-0.009998	0.000000	-0.810867	-0.813861	0.000000	0.335359	0.343610	0.000000	0.437439	0.403523	0.000000	-0.251535	-0.239997	0.000000
20.000000	0.085098	0.137228	0.000000	-0.026840	-0.041205	0.000000	-0.692352	-0.755386	0.000000	0.537081	0.358142	0.000000	0.387712	0.243336	0.000000	0.005968	-0.113878	0.000000
20.049999	0.156708	0.128223	0.000158	-0.119324	-0.076187	0.000190	-0.716019	-0.744690	0.003525	0.302272	0.284494	0.004974	-0.022879	0.064001	0.004753	0.037960	-0.037938	0.000831
20.100000	0.100327	0.119119	0.000000	-0.090210	-0.095197	0.000000	-0.688583	-0.739166	0.000000	0.296461	0.276577	0.000000	-0.211285	-0.125576	0.000000	0.122986	0.052619	0.000000
20.150000	0.136795	0.121548	0.000000	-0.127731	-0.117798	0.000000	-0.815628	-0.777042	0.000000	-0.048702	0.182158	0.000000	-0.270982	-0.196385	0.000000	-0.105069	0.027157	0.000000
20.200001	0.116669	0.106235	0.000000	-0.111877	-0.122504	0.000000	-0.783249	-0.808328	0.000000	0.295772	0.180210	0.000000	-0.510444	-0.246029	0.000000	0.201252	0.037340	0.000000
20.250000	0.097244	0.110602	0.000000	-0.139847	-0.132193	0.000000	-0.881729	-0.847992	0.000000	0.064986	0.116641	0.000000	0.033666	-0.222622	0.000000	-0.121341	-0.021803	0.000000
20.299999	0.080139	0.108496	0.000000	-0.142853	-0.134317	0.000000	-0.872452	-0.872720	0.000000	0.292533	0.136112	0.000000	-0.271098	-0.173086	0.000000	0.088871	-0.021246	0.000000
20.350000	0.122162	0.118600	0.000000	-0.138657	-0.142340	0.000000	-0.886902	-0.909906	0.000000	-0.021385	0.082141	0.000000	-0.094252	-0.086080	0.000000	-0.172729	-0.075825	0.000000
20.400000	0.126266	0.126801	0.000000	-0.138351	-0.142426	0.000000	-0.939270	-0.922903	0.000000	0.048656	0.069763	0.000000	-0.023302	-0.094995	0.000000	-0.102281	-0.059778	0.000000
20.450001	0.167191	0.138458	0.000000	-0.151993	-0.146301	0.000000	-0.969177	-0.944333	0.000000	0.025913	-0.002384	0.000000	-0.075415	-0.024226	0.000000	-0.071644	-0.091235	0.000000
20.500000	0.138245	0.142764	0.000000	-0.140274	-0.144086	0.000000	-0.946716	-0.957837	0.000000	0.003097	0.006069	0.000000	-0.010908	-0.008147	0.000000	-0.041106	-0.051939	0.000000
20.549999	0.138428	0.143692	0.000000	-0.162231	-0.146747	0.000000	-0.979599	-0.967319	0.000000	-0.068201	-0.005894	0.000000	0.082747	-0.002199	0.000000	-0.068418	-0.024417	0.000000
20.600000	0.143692	0.134082	0.000000	-0.127579	-0.145532	0.000000	-0.954422	-0.970889	0.000000	0.020882	-0.012365	0.000000	-0.013858	0.020287	0.000000	0.023753	-0.011061	0.000000
20.650000	0.130905	0.132019	0.000000	-0.151657	-0.146820	0.000000	-0.986679	-0.977737	0.000000	-0.011162	-0.021278	0.000000	0.006437	0.014369	0.000000	0.035327	-0.006073	0.000000
20.700001	0.119141	0.129269	0.000000	-0.145920	-0.143884	0.000000	-0.987030	-0.975500	0.000000	-0.006443	-0.000028	0.000000	0.037016	-0.005668	0.000000	-0.004860	0.011679	0.000000
20.750000	0.127930	0.127094	0.000000	-0.146713	-0.147690	0.000000	-0.980957	-0.980005	0.000000	-0.041467	-0.005905	0.000000	-0.040495	-0.010512	0.000000	-0.016170	0.003504	0.000000
20.799999	0.124680	0.127417	0.000000	-0.147553	-0.145251	0.000000	-0.968414	-0.973791	0.000000	0.038051	0.011519	0.000000	-0.017439	-0.015758	0.000000	0.020345	-0.000149	0.000000
20.850000	0.132812	0.128683	0.000000	-0.146606	-0.146548	0.000000	-0.976944	-0.969473	0.000000	-0.008505	0.014776	0.000000	-0.038078	-0.021256	0.000000	-0.017122	-0.003189	0.000000
20.900000	0.132523	0.129419	0.000000	-0.139465	-0.146902	0.000000	-0.955612	-0.967123	0.000000	0.075958	0.027929	0.000000	-0.019793	-0.013378	0.000000	0.017063	-0.002581	0.000000
20.950001	0.125473	0.129999	0.000000	-0.152405	-0.149673	0.000000	-0.965439	-0.969809	0.000000	0.009842	0.016580	0.000000	0.009523	0.001236	0.000000	-0.020059	-0.016395	0.000000
21.000000	0.131607	0.128503	0.000000	-0.148483	-0.151215	0.000000	-0.969208	-0.966727	0.000000	0.024301	0.019291	0.000000	-0.001102	0.011939	0.000000	-0.013134	-0.017671	0.000000
21.049999	0.127579	0.123941	0.000000	-0.161408	-0.153253	0.000000	-0.981842	-0.968781	0.000000	-0.018697	0.001108	0.000000	0.055629	0.032261	0.000000	-0.048722	-0.031469	0.000000
21.100000	0.125336	0.125851	0.000000	-0.154312	-0.154376	0.000000	-0.961533	-0.966583	0.000000	0.005052	-0.006182	0.000000	0.015435	0.024158	0.000000	-0.023503	-0.032276	0.000000
21.150000	0.109711	0.124103	0.000000	-0.149658	-0.153821	0.000000	-0.965881	-0.967603	0.000000	-0.014956	-0.025403	0.000000	0.081822	0.028403	0.000000	-0.051927	-0.034193	0.000000
21.200001	0.135025	0.127176	0.000000	-0.158020	-0.149475	0.000000	-0.954453	-0.967160	0.000000	-0.026607	-0.029333	0.000000	-0.030991	0.005810	0.000000	-0.024092	-0.032567	0.000000
21.250000	0.122864	0.130322	0.000000	-0.145706	-0.146371	0.000000	-0.974304	-0.971765	0.000000	-0.071808	-0.037003	0.000000	0.020122	0.009806	0.000000	-0.022722	-0.037662	0.000000
21.299999	0.142944	0.135953	0.000000	-0.139679	-0.145166	0.000000	-0.979630	-0.974149	0.000000	-0.038343	-0.035120	0.000000	-0.057338	-0.003730	0.000000	-0.040592	-0.034767	0.000000
21.350000	0.141068	0.138858	0.000000	-0.138794	-0.143228	0.000000	-0.984558	-0.977975	0.000000	-0.033299	-0.025534	0.000000	0.035414	0.001341	0.000000	-0.048979	-0.028421	0.000000
21.400000	0.137863	0.140787	0.000000	-0.143631	-0.141382	0.000000	-0.977799	-0.973270	0.000000	-0.005541	-0.004133	0.000000	0.014143	0.013378	0.000000	-0.037450	-0.017087	0.000000
21.450001	0.149551	0.140344	0.000000	-0.148331	-0.143744	0.000000	-0.973587	-0.973849	0.000000	0.021319	-0.006437	0.000000	-0.005635	0.030545	0.000000	0.007639	-0.013474	0.000000
21.500000	0.132507	0.140112	0.000000	-0.136475	-0.143127	0.000000	-0.950775	-0.971332	0.000000	0.035199	0.004856	0.000000	0.080304	0.024043	0.000000	0.033947	0.002263	0.000000
21.549999	0.140732	0.139279	0.000000	-0.151489	-0.145096	0.000000	-0.982529	-0.971729	0.000000	-0.049863	0.002063	0.000000	0.028499	0.023921	0.000000	-0.022527	0.015435	0.000000
21.600000	0.139908	0.135568	0.000000	-0.135712	-0.141995	0.000000	-0.971970	-0.970877	0.000000	0.023165	0.005740	0.000000	0.002902	0.024873	0.000000	0.029707	0.014770	0.000000
21.650000	0.133697	0.139557	0.000000	-0.153473	-0.145941	0.000000	-0.979782	-0.976572	0.000000	-0.019504	-0.006736	0.000000	0.013535	0.013362	0.000000	0.028409	0.007192	0.000000
21.700001	0.130997	0.138104	0.000000	-0.132828	-0.146707	0.000000	-0.969330	-0.974274	0.000000	0.039704	0.006504	0.000000	-0.000875	0.011621	0.000000	0.004313	0.022983	0.000000
21.750000	0.152451	0.139432	0.000000	-0.156204	-0.148837	0.000000	-0.979248	-0.973834	0.000000	-0.027183	0.007089	0.000000	0.022750	0.020630	0.000000	-0.003943	0.019135	0.000000
21.799999	0.133469	0.138031	0.000000	-0.155319	-0.146661	0.000000	-0.971039	-0.970776	0.000000	0.016337	0.014935	0.000000	0.019793	0.020712	0.000000	0.056431	0.026815	0.000000
21.850000	0.146545	0.138535	0.000000	-0.146362	-0.149179	0.000000	-0.969772	-0.969382	0.000000	0.026092	0.010747	0.000000	0.047949	0.031663	0.000000	0.010464	0.028048	0.000000
21.900000	0.126694	0.133499	0.000000	-0.142593	-0.147397	0.000000	-0.964493	-0.963702	0.000000	0.019725	0.017479	0.000000	0.013941	0.039082	0.000000	0.066809	0.031623	0.000000
21.950001	0.133514	0.134839	0.000000	-0.145416	-0.145966	0.000000	-0.962357	-0.959982	0.000000	0.018767	0.008804	0.000000	0.053884	0.035140	0.000000	0.010478	0.018583	0.000000
22.000000	0.127274	0.136627	0.000000	-0.147293	-0.147543	0.000000	-0.950851	-0.962256	0.000000	0.006472	-0.008978	0.000000	0.059843	0.024549	0.000000	0.013935	0.008670	0.000000
22.049999	0.140167	0.144983	0.000000	-0.148163	-0.148465	0.000000	-0.952438	-0.964944	0.000000	-0.027037	-0.011340	0.000000	0.000083	0.020637	0.000000	-0.008773	-0.003175	0.000000
22.100000	0.155487	0.150974	0.000000	-0.154251	-0.149225	0.000000	-0.981140	-0.967886	0.000000	-0.062816	-0.009594	0.000000	-0.005004	0.021586	0.000000	-0.039098	-0.004542	0.000000
22.150000	0.168472	0.157614	0.000000	-0.147201	-0.149612	0.000000	-0.977936	-0.972955	0.000000	0.007914	-0.013823	0.000000	-0.005623	0.011148	0.000000	0.007581	-0.001187	0.000000
22.200001	0.163467	0.158441	0.000000	-0.149216	-0.150616	0.000000	-0.977066	-0.975650	0.000000	0.027496	-0.003602	0.000000	0.058634	0.021973	0.000000	0.003644	0.008689	0.000000
22.250000	0.160477	0.154398	0.000000	-0.149231	-0.150211	0.000000	-0.976196	-0.971292	0.000000	-0.014673	0.013068	0.000000	0.007651	0.026429	0.000000	0.030712	0.023864	0.000000
22.299999	0.144302	0.149008	0.000000	-0.153183	-0.151038	0.000000	-0.965912	-0.970261	0.000000	0.024067	0.008025	0.000000	0.054208	0.035205	0.000000	0.040604	0.020679	0.000000
22.350000	0.135269	0.150037	0.000000	-0.152222	-0.151843	0.000000	-0.959351	-0.972955	0.000000	0.020535	-0.008445	0.000000	0.017276	0.028163	0.000000	0.036779	0.007339	0.000000
22.400000	0.141525	0.152975	0.000000	-0.151337	-0.151389	0.000000	-0.972778	-0.970935	0.000000	-0.017298	0.009668	0.000000	0.038258	0.030793	0.000000	-0.008343	0.005152	0.000000
22.450001	0.168610	0.158115	0.000000	-0.153244	-0.149731	0.000000	-0.990540	-0.968472	0.000000	-0.054855	0.011858	0.000000	0.023422	0.033573	0.000000	-0.063060	-0.003832	0.000000
22.500000	0.175171	0.161270	0.000000	-0.146957	-0.148291	0.000000	-0.966095	-0.966064	0.000000	0.075890	0.007707	0.000000	0.020800	0.047289	0.000000	0.019782	-0.013215	0.000000
22.549999	0.169998	0.167593	0.004611	-0.144898	-0.146021	0.003458	-0.953598	-0.962610	0.003098	0.035016	0.003039	0.017128	0.068109	0.051966	0.009501	-0.004316	-0.021298	0.007986
22.600000	0.151047	0.166129	0.000000	-0.145020	-0.148172	0.000000	-0.947311	-0.961270	0.000000	-0.000216	0.008959	0.000000	0.085856	0.056636	0.000000	-0.010136	-0.005721	0.000000
22.650000	0.173141	0.163919	0.000000	-0.139984	-0.148975	0.000000	-0.955505	-0.960739	0.000000	-0.040639	0.001061	0.000000	0.061644	0.057045	0.000000	-0.048758	-0.011546	0.000000
22.700001	0.161285	0.165485	0.000000	-0.164001	-0.150134	0.000000	-0.983841	-0.960883	0.000000	-0.025256	-0.001539	0.000000	0.046773	0.041071	0.000000	0.014823	-0.014251	0.000000
22.750000	0.164124	0.172183	0.000000	-0.150971	-0.149240	0.000000	-0.963440	-0.957986	0.000000	0.036402	0.008297	0.000000	0.022844	0.030589	0.000000	-0.009346	-0.016836	0.000000
22.799999	0.177826	0.173645	0.000000	-0.150696	-0.145239	0.000000	-0.954315	-0.938147	0.000000	0.022014	0.031190	0.000000	-0.011765	0.025486	0.000000	-0.017838	-0.006112	0.000000
22.850000	0.184540	0.177771	0.000000	-0.140549	-0.133182	0.000000	-0.932831	-0.903909	0.000000	0.048963	0.020465	0.000000	0.033450	0.042279	0.000000	-0.023063	-0.015969	0.000000
22.900000	0.180450	0.182483	0.000000	-0.119980	-0.122308	0.000000	-0.856308	-0.870621	0.000000	0.073826	-0.043777	0.000000	0.036127	0.061878	0.000000	0.004863	-0.022627	0.000000
22.950001	0.181915	0.178586	0.000000	-0.103714	-0.111401	0.000000	-0.812653	-0.842618	0.000000	-0.078880	-0.139323	0.000000	0.130738	0.076541	0.000000	-0.034461	-0.017240	0.000000
23.000000	0.187683	0.175400	0.000000	-0.096603	-0.109033	0.000000	-0.796997	-0.839026	0.000000	-0.284808	-0.261026	0.000000	0.120837	0.079120	0.000000	-0.042636	-0.027842	0.000000
23.049999	0.158340	0.179767	0.000000	-0.096161	-0.094531	0.000000	-0.814300	-0.841153	0.000000	-0.455716	-0.334758	0.000000	0.061553	0.038255	0.000000	0.009096	-0.006875	0.000000
23.100000	0.168610	0.180136	0.000000	-0.128708	-0.092242	0.000000	-0.914871	-0.874786	0.000000	-0.559550	-0.407782	0.000000	0.046347	0.024277	0.000000	-0.076073	-0.012962	0.000000
23.150000	0.202286	0.175439	0.000000	-0.047470	-0.070190	0.000000	-0.866943	-0.889642	0.000000	-0.294836	-0.391249	0.000000	-0.168200	-0.018274	0.000000	0.109701	0.017284	0.000000
23.200001	0.183762	0.175439	0.000000	-0.092270	-0.056921	0.000000	-0.980820	-0.921225	0.000000	-0.444001	-0.361100	0.000000	0.060846	-0.018445	0.000000	-0.064899	0.020918	0.000000
23.250000	0.164200	0.188275	0.000000	0.013657	-0.030756	0.000000	-0.871277	-0.935645	0.000000	-0.202143	-0.316819	0.000000	-0.091916	-0.054911	0.000000	0.108594	0.035176	0.000000
23.299999	0.158340	0.184207	0.000000	-0.029816	-0.033508	0.000000	-0.972214	-0.962170	0.000000	-0.304971	-0.326943	0.000000	0.060698	-0.024511	0.000000	0.027266	0.029842	0.000000
23.350000	0.232788	0.183768	0.000000	0.002121	-0.008826	0.000000	-0.986969	-0.959830	0.000000	-0.338145	-0.232318	0.000000	-0.135984	-0.009431	0.000000	-0.004782	0.076318	0.000000
23.400000	0.181946	0.181314	0.000000	-0.061234	-0.012503	0.000000	-0.999573	-0.969788	0.000000	-0.345456	-0.188200	0.000000	-0.016200	-0.004182	0.000000	0.083031	0.123118	0.000000
23.450001	0.181564	0.187842	0.000000	0.031143	-0.012616	0.000000	-0.969116	-0.969223	0.000000	0.029123	-0.116851	0.000000	0.136246	-0.055168	0.000000	0.167479	0.183905	0.000000
23.500000	0.151932	0.165076	0.000000	-0.004730	-0.023370	0.000000	-0.921066	-0.964511	0.000000	0.018451	-0.035800	0.000000	-0.065669	-0.068206	0.000000	0.342594	0.255039	0.000000
23.549999	0.190979	0.165433	0.000000	-0.030380	-0.013062	0.000000	-0.969391	-0.969431	0.000000	0.051774	0.046467	0.000000	-0.194235	-0.149146	0.000000	0.331201	0.291551	0.000000
23.600000	0.118957	0.153745	0.000000	-0.051651	-0.023929	0.000000	-0.963409	-0.982300	0.000000	0.067108	0.035210	0.000000	-0.201174	-0.227350	0.000000	0.350890	0.303736	0.000000
23.650000	0.183731	0.154367	0.000000	-0.009689	-0.029294	0.000000	-1.024170	-1.017819	0.000000	0.065878	-0.011612	0.000000	-0.420896	-0.242204	0.000000	0.265592	0.221432	0.000000
23.700001	0.123123	0.132385	0.000000	-0.023193	-0.027499	0.000000	-1.033463	-1.026196	0.000000	-0.027159	-0.031046	0.000000	-0.254774	-0.231735	0.000000	0.228404	0.145294	0.000000
23.750000	0.155045	0.136911	0.000000	-0.031555	-0.007074	0.000000	-1.098663	-1.038467	0.000000	-0.215659	-0.052283	0.000000	-0.139941	-0.203172	0.000000	-0.068928	0.017712	0.000000
23.799999	0.081070	0.115802	0.000000	-0.021408	0.004813	0.000000	-1.011276	-1.039117	0.000000	-0.045397	-0.087257	0.000000	-0.141890	-0.161739	0.000000	-0.049490	-0.052910	0.000000
23.850000	0.141586	0.112167	0.000000	0.050476	0.007068	0.000000	-1.024765	-1.042731	0.000000	-0.039080	-0.133144	0.000000	-0.058360	-0.127806	0.000000	-0.287020	-0.134998	0.000000
23.900000	0.078186	0.076434	0.000000	0.049744	0.016434	0.000000	-1.027420	-1.029367	0.000000	-0.108991	-0.099333	0.000000	-0.213730	-0.136116	0.000000	-0.087517	-0.085602	0.000000
23.950001	0.104950	0.082632	0.000000	-0.011917	0.024088	0.000000	-1.051529	-1.032367	0.000000	-0.256591	-0.126611	0.000000	-0.085108	-0.156803	0.000000	-0.182037	-0.105146	0.000000
24.000000	-0.023621	0.062997	0.000000	0.015274	0.012674	0.000000	-1.031845	-1.035529	0.000000	-0.046607	-0.125369	0.000000	-0.181492	-0.181137	0.000000	0.178054	-0.032706	0.000000
24.049999	0.112061	0.065024	0.000000	0.016861	-0.003104	0.000000	-1.026276	-1.046246	0.000000	-0.181785	-0.115154	0.000000	-0.245328	-0.169547	0.000000	-0.147210	-0.041106	0.000000
24.100000	0.043411	0.066217	0.000000	-0.006592	0.000485	0.000000	-1.040573	-1.042157	0.000000	-0.032869	-0.041435	0.000000	-0.180027	-0.183729	0.000000	0.075180	-0.015142	0.000000
24.150000	0.088318	0.081259	0.000000	-0.029144	-0.001120	0.000000	-1.081009	-1.043103	0.000000	-0.057919	-0.003165	0.000000	-0.155781	-0.172251	0.000000	-0.129516	-0.014363	0.000000
24.200001	0.110916	0.074661	0.000000	0.006027	0.000433	0.000000	-1.031082	-1.038623	0.000000	0.112007	0.043965	0.000000	-0.156018	-0.139445	0.000000	-0.052219	0.001235	0.000000
24.250000	0.051590	0.081149	0.000000	0.007248	0.011612	0.000000	-1.036575	-1.042029	0.000000	0.144743	0.062953	0.000000	-0.124102	-0.097700	0.000000	0.181949	-0.016560	0.000000
24.299999	0.079071	0.071552	0.000000	0.024628	0.025668	0.000000	-1.003876	-1.022168	0.000000	0.053864	0.085754	0.000000	-0.081297	-0.154881	0.000000	-0.069217	-0.001219	0.000000
24.350000	0.075851	0.046552	0.000000	0.049301	0.018109	0.000000	-1.057602	-1.010928	0.000000	0.062070	0.059768	0.000000	0.028699	-0.151858	0.000000	-0.013798	0.021571	0.000000
24.400000	0.040329	0.050696	0.000000	0.041138	0.028107	0.000000	-0.981705	-0.998639	0.000000	0.056088	0.047338	0.000000	-0.441686	-0.160932	0.000000	-0.052809	-0.005883	0.000000
24.450001	-0.014084	0.036057	0.000000	-0.031769	0.023083	0.000000	-0.974884	-0.996277	0.000000	-0.017923	0.031303	0.000000	-0.140906	-0.185951	0.000000	0.061731	0.019484	0.000000
24.500000	0.072311	0.019403	0.000000	0.057236	0.018390	0.000000	-0.975128	-0.982501	0.000000	0.082590	0.016515	0.000000	-0.169470	-0.211144	0.000000	0.044677	0.025652	0.000000
24.549999	0.005875	0.013376	0.000000	-0.000488	0.012015	0.000000	-0.992065	-0.985730	0.000000	-0.026309	0.005660	0.000000	-0.206394	-0.125618	0.000000	0.057619	0.037243	0.000000
24.600000	-0.007416	0.018430	0.000000	0.025833	0.020227	0.000000	-0.988724	-0.990121	0.000000	-0.011871	0.014517	0.000000	-0.097265	-0.100965	0.000000	0.017040	0.024789	0.000000
24.650000	0.010193	0.005133	0.000000	0.009262	0.008292	0.000000	-0.997849	-0.993506	0.000000	0.001813	-0.004743	0.000000	-0.014056	-0.065544	0.000000	0.005146	0.023384	0.000000
24.700001	0.011185	0.008115	0.000000	0.009293	0.009116	0.000000	-0.996841	-0.992847	0.000000	0.026365	0.001183	0.000000	-0.017641	-0.020909	0.000000	-0.000535	0.010633	0.000000
24.750000	0.005829	0.013708	0.000000	-0.002441	0.001328	0.000000	-0.992050	-0.994586	0.000000	-0.013710	0.009825	0.000000	0.007635	0.000721	0.000000	0.037649	0.006249	0.000000
24.799999	0.020782	0.013281	0.000000	0.003632	0.001346	0.000000	-0.988769	-0.993042	0.000000	0.003317	0.009854	0.000000	0.016782	0.008086	0.000000	-0.006136	0.004928	0.000000
24.850000	0.020554	0.013443	0.000000	-0.013107	0.000577	0.000000	-0.997421	-0.992255	0.000000	0.031340	0.004232	0.000000	0.010886	0.011886	0.000000	-0.004877	0.005162	0.000000
24.900000	0.008057	0.014651	0.000000	0.009354	0.001965	0.000000	-0.990128	-0.991650	0.000000	0.001957	0.007363	0.000000	0.022767	0.009917	0.000000	-0.001462	-0.002474	0.000000
24.950001	0.011993	0.013071	0.000000	0.005447	0.001947	0.000000	-0.992905	-0.991888	0.000000	-0.001745	0.005369	0.000000	0.001361	0.007310	0.000000	0.000637	-0.000889	0.000000
25.000000	0.011871	0.010730	0.000000	0.004501	0.004678	0.000000	-0.989029	-0.990414	0.000000	0.001950	-0.001007	0.000000	-0.002212	0.003028	0.000000	-0.000532	0.000425	0.000000
25.049999	0.012878	0.011670	0.000001	0.003540	0.003128	0.000000	-0.989960	-0.989798	0.000001	-0.006656	0.000189	0.000006	0.003746	-0.002918	0.000010	0.001788	0.001304	0.000005
25.100000	0.008850	0.011057	0.000000	0.000549	0.002737	0.000000	-0.990051	-0.989230	0.000000	-0.000542	0.001426	0.000000	-0.010522	-0.004357	0.000000	0.001692	0.000605	0.000000
25.150000	0.012756	0.011060	0.000000	0.001602	0.002545	0.000000	-0.987045	-0.989423	0.000000	0.007940	-0.001035	0.000000	-0.006966	-0.005551	0.000000	0.002934	0.001275	0.000000
25.200001	0.008926	0.010251	0.000000	0.003494	0.002142	0.000000	-0.990067	-0.989249	0.000000	0.004437	0.000915	0.000000	-0.005831	-0.006268	0.000000	-0.002859	0.001281	0.000000
25.250000	0.011887	0.009891	0.000000	0.003540	0.002905	0.000000	-0.989990	-0.990234	0.000000	-0.010352	0.002122	0.000000	-0.008181	-0.003652	0.000000	0.002822	0.001544	0.000000
25.299999	0.008835	0.009552	0.000000	0.001526	0.003464	0.000000	-0.989090	-0.992188	0.000000	0.003090	-0.000305	0.000000	0.000161	-0.001993	0.000000	0.001815	0.001082	0.000000
25.350000	0.007050	0.009735	0.000000	0.004364	0.002875	0.000000	-0.994980	-0.992371	0.000000	0.005497	-0.001276	0.000000	0.002557	0.000860	0.000000	0.003007	0.000871	0.000000
25.400000	0.011063	0.009720	0.000000	0.004395	0.003076	0.000000	-0.996811	-0.991595	0.000000	-0.004196	-0.000757	0.000000	0.001330	0.002041	0.000000	0.000628	-0.000272	0.000000
25.450001	0.009842	0.009766	0.000000	0.000549	0.003845	0.000000	-0.990982	-0.992764	0.000000	-0.000420	-0.000965	0.000000	0.008435	0.003219	0.000000	-0.003914	-0.001651	0.000000
25.500000	0.011810	0.010342	0.000000	0.004547	0.003668	0.000000	-0.986115	-0.992163	0.000000	-0.007758	-0.002165	0.000000	-0.002276	0.003211	0.000000	-0.002895	-0.002352	0.000000
25.549999	0.009064	0.009885	0.000000	0.005371	0.002512	0.000000	-0.994934	-0.990613	0.000000	0.002054	0.000519	0.000000	0.006049	0.002264	0.000000	-0.005079	-0.002345	0.000000
25.600000	0.009933	0.009320	0.000000	0.003479	0.004074	0.000000	-0.991974	-0.990253	0.000000	-0.000506	-0.000198	0.000000	0.002517	0.000117	0.000000	-0.000498	-0.002832	0.000000
25.650000	0.008774	0.009143	0.000000	-0.001389	0.003265	0.000000	-0.989059	-0.991998	0.000000	0.009225	0.002228	0.000000	-0.003407	0.001077	0.000000	0.000659	-0.002347	0.000000
25.700001	0.007019	0.009534	0.000000	0.008362	0.003278	0.000000	-0.989182	-0.991595	0.000000	-0.004004	-0.000659	0.000000	-0.002300	-0.001557	0.000000	-0.006346	-0.003775	0.000000
25.750000	0.010925	0.008737	0.000000	0.000504	0.003070	0.000000	-0.994843	-0.991617	0.000000	0.004374	-0.000449	0.000000	0.002526	-0.004876	0.000000	-0.000471	-0.002416	0.000000
25.799999	0.011017	0.008960	0.000000	0.005432	0.003848	0.000000	-0.992920	-0.992004	0.000000	-0.012382	-0.003113	0.000000	-0.007124	-0.004410	0.000000	-0.012221	-0.003121	0.000000
25.850000	0.005951	0.009164	0.000000	0.002441	0.003448	0.000000	-0.992081	-0.992770	0.000000	0.000544	-0.002875	0.000000	-0.014076	-0.004169	0.000000	0.006298	-0.002886	0.000000
25.900000	0.009888	0.009369	0.000000	0.002502	0.004639	0.000000	-0.990997	-0.991806	0.000000	-0.004098	-0.004074	0.000000	-0.001077	-0.006557	0.000000	-0.002865	-0.003609	0.000000
25.950001	0.008041	0.008734	0.000000	0.006363	0.004056	0.000000	-0.993011	-0.990851	0.000000	-0.002816	0.000971	0.000000	-0.001095	-0.003906	0.000000	-0.005172	-0.000780	0.000000
26.000000	0.011948	0.009344	0.000000	0.006454	0.004254	0.000000	-0.990021	-0.991223	0.000000	-0.001620	0.001977	0.000000	-0.009413	-0.002962	0.000000	-0.004084	-0.001923	0.000000
26.049999	0.007843	0.009131	0.000000	0.002518	0.004062	0.000000	-0.988144	-0.990649	0.000000	0.012847	0.001954	0.000000	0.006133	-0.003677	0.000000	0.001922	-0.001233	0.000000
26.100000	0.009003	0.009692	0.000000	0.003433	0.003296	0.000000	-0.993942	-0.989853	0.000000	0.005573	0.002626	0.000000	-0.009359	-0.003902	0.000000	0.000584	0.000854	0.000000
26.150000	0.008820	0.008487	0.000000	0.001541	0.003290	0.000000	-0.988129	-0.989105	0.000000	-0.004212	0.001888	0.000000	-0.004650	-0.002958	0.000000	0.000586	0.000861	0.000000
26.200001	0.010849	0.008728	0.000000	0.002533	0.003864	0.000000	-0.989029	-0.990268	0.000000	0.000541	0.000871	0.000000	-0.002220	-0.003430	0.000000	0.005262	0.002242	0.000000
26.250000	0.005920	0.009109	0.000000	0.006424	0.003677	0.000000	-0.986282	-0.989868	0.000000	-0.005307	-0.001306	0.000000	-0.004693	-0.001782	0.000000	-0.004048	0.001323	0.000000
26.299999	0.009048	0.008728	0.000000	0.005386	0.003867	0.000000	-0.993958	-0.990265	0.000000	0.007761	-0.001282	0.000000	0.003774	-0.001076	0.000000	0.008827	0.000403	0.000000
26.350000	0.010910	0.009723	0.000000	0.002502	0.003482	0.000000	-0.991943	-0.990820	0.000000	-0.005311	-0.001531	0.000000	-0.001121	-0.002026	0.000000	-0.004016	0.000625	0.000000
26.400000	0.006912	0.011115	0.000000	0.002487	0.002701	0.000000	-0.990112	-0.991943	0.000000	-0.004091	-0.000114	0.000000	-0.001119	0.001324	0.000000	-0.004009	0.002283	0.000000
26.450001	0.015823	0.011496	0.000000	0.000610	0.002719	0.000000	-0.991806	-0.991156	0.000000	-0.000706	-0.000557	0.000000	-0.006970	0.002015	0.000000	0.006369	0.000439	0.000000
26.500000	0.012878	0.011499	0.000000	0.002518	0.003116	0.000000	-0.991898	-0.990771	0.000000	0.001779	0.000671	0.000000	0.012055	0.001532	0.000000	0.004241	-0.000019	0.000000
26.549999	0.010956	0.012720	0.000000	0.005478	0.003500	0.000000	-0.990021	-0.991910	0.000000	0.005545	0.002393	0.000000	0.007231	0.001761	0.000000	-0.000393	-0.000698	0.000000
26.600000	0.010925	0.010757	0.000000	0.004486	0.004062	0.000000	-0.990021	-0.992157	0.000000	0.000830	0.000477	0.000000	-0.003539	0.002927	0.000000	-0.006302	-0.002313	0.000000
26.650000	0.013016	0.009979	0.000000	0.004410	0.005038	0.000000	-0.995804	-0.991602	0.000000	0.004517	-0.003130	0.000000	0.000026	-0.000436	0.000000	-0.007406	-0.004441	0.000000
26.700001	0.006012	0.009973	0.000000	0.003418	0.005234	0.000000	-0.993042	-0.991217	0.000000	-0.010284	-0.006038	0.000000	-0.001140	-0.002828	0.000000	-0.001705	-0.005171	0.000000
26.750000	0.008987	0.009381	0.000000	0.007401	0.005426	0.000000	-0.989120	-0.991232	0.000000	-0.016255	-0.008475	0.000000	-0.004760	-0.003311	0.000000	-0.006399	-0.005417	0.000000
26.799999	0.010925	0.008539	0.000000	0.006454	0.005054	0.000000	-0.988098	-0.989307	0.000000	-0.009000	-0.007816	0.000000	-0.004728	-0.003763	0.000000	-0.004045	-0.002868	0.000000
26.850000	0.007965	0.009485	0.000000	0.005447	0.004297	0.000000	-0.990097	-0.988113	0.000000	-0.011354	-0.005627	0.000000	-0.005952	-0.005185	0.000000	-0.007529	-0.002636	0.000000
26.900000	0.008804	0.009866	0.000000	0.002548	0.003714	0.000000	-0.986175	-0.988098	0.000000	0.007816	-0.003216	0.000000	-0.002237	-0.004696	0.000000	0.005337	-0.001688	0.000000
26.950001	0.010742	0.009662	0.000000	-0.000366	0.002921	0.000000	-0.987076	-0.988873	0.000000	0.000659	-0.000763	0.000000	-0.008250	-0.003269	0.000000	-0.000542	-0.002351	0.000000
27.000000	0.010895	0.010074	0.000000	0.004486	0.003107	0.000000	-0.989044	-0.989447	0.000000	-0.004202	0.001180	0.000000	-0.002312	-0.001834	0.000000	-0.001660	-0.002093	0.000000
27.049999	0.009903	0.010510	0.000000	0.002487	0.003687	0.000000	-0.991974	-0.990604	0.000000	0.003267	-0.002440	0.000000	0.002407	-0.000424	0.000000	-0.007360	-0.003715	0.000000
27.100000	0.010025	0.010941	0.000000	0.006378	0.004062	0.000000	-0.992966	-0.991956	0.000000	-0.001642	-0.003639	0.000000	0.001221	0.001235	0.000000	-0.006241	-0.004628	0.000000
27.150000	0.010986	0.010144	0.000000	0.005447	0.003662	0.000000	-0.991959	-0.992169	0.000000	-0.010282	-0.001927	0.000000	0.004815	0.001237	0.000000	-0.002774	-0.004847	0.000000
27.200001	0.012894	0.010141	0.000000	0.001511	0.004059	0.000000	-0.993835	-0.991589	0.000000	-0.005337	-0.002209	0.000000	0.000043	0.000301	0.000000	-0.005103	-0.003464	0.000000
27.250000	0.006912	0.010117	0.000000	0.002487	0.003485	0.000000	-0.990112	-0.991003	0.000000	0.004361	-0.002936	0.000000	-0.002301	-0.001126	0.000000	-0.002757	-0.003706	0.000000
27.299999	0.009888	0.009506	0.000000	0.004471	0.003091	0.000000	-0.989075	-0.990820	0.000000	0.001854	0.000014	0.000000	-0.002273	-0.000175	0.000000	-0.000442	-0.004604	0.000000
27.350000	0.009903	0.008713	0.000000	0.003510	0.003882	0.000000	-0.990036	-0.989682	0.000000	-0.005275	0.000243	0.000000	-0.005916	0.000786	0.000000	-0.007456	-0.004125	0.000000
27.400000	0.007935	0.009119	0.000000	0.003479	0.003677	0.000000	-0.991043	-0.990448	0.000000	0.004469	-0.000023	0.000000	0.009570	0.002939	0.000000	-0.007262	-0.003406	0.000000
27.450001	0.008926	0.009122	0.000000	0.005463	0.003879	0.000000	-0.988144	-0.990256	0.000000	-0.004192	0.000473	0.000000	0.004850	0.005559	0.000000	-0.002708	-0.003836	0.000000
27.500000	0.008942	0.009320	0.000000	0.001465	0.004074	0.000000	-0.993942	-0.990057	0.000000	0.003029	0.001934	0.000000	0.008463	0.007470	0.000000	0.000836	-0.003804	0.000000
27.549999	0.009903	0.010294	0.000001	0.005478	0.003891	0.000001	-0.988113	-0.989453	0.000000	0.004337	0.001372	0.000005	0.010827	0.005595	0.000011	-0.002589	-0.001040	0.000003
27.600000	0.010895	0.010287	0.000000	0.004486	0.003299	0.000000	-0.989044	-0.989838	0.000000	0.002028	0.002110	0.000000	0.003641	0.005125	0.000000	-0.007294	-0.001264	0.000000
27.650000	0.012802	0.010504	0.000000	0.002563	0.004483	0.000000	-0.988022	-0.989450	0.000000	0.001659	0.002842	0.000000	0.000196	0.004419	0.000000	0.006555	-0.001258	0.000000
27.700001	0.008896	0.010718	0.000000	0.002502	0.004480	0.000000	-0.990067	-0.990024	0.000000	-0.000504	0.000885	0.000000	0.002497	0.003470	0.000000	-0.003826	-0.001042	0.000000
27.750000	0.010025	0.010715	0.000000	0.007385	0.004288	0.000000	-0.992004	-0.990021	0.000000	0.006688	0.000390	0.000000	0.004931	0.004669	0.000000	0.000863	-0.000794	0.000000
27.799999	0.010971	0.010312	0.000000	0.005463	0.004092	0.000000	-0.990982	-0.989835	0.000000	-0.005448	-0.000066	0.000000	0.006082	0.003953	0.000000	-0.001508	-0.001950	0.000000
27.850000	0.010880	0.011115	0.000000	0.003525	0.004489	0.000000	-0.989029	-0.990009	0.000000	-0.000447	0.000669	0.000000	0.009640	0.000388	0.000000	-0.006051	-0.001974	0.000000
27.900000	0.010788	0.011087	0.000000	0.001587	0.003513	0.000000	-0.987091	-0.989807	0.000000	-0.000622	-0.000533	0.000000	-0.003387	0.002294	0.000000	0.000771	-0.002648	0.000000
27.950001	0.012909	0.011682	0.000000	0.004486	0.003122	0.000000	-0.990936	-0.990176	0.000000	0.003172	0.000983	0.000000	-0.015324	0.000384	0.000000	-0.003944	-0.004498	0.000000
28.000000	0.009888	0.010883	0.000000	0.002502	0.003119	0.000000	-0.990997	-0.989810	0.000000	0.000680	0.001181	0.000000	0.014457	-0.002688	0.000000	-0.002507	-0.002669	0.000000
28.049999	0.013947	0.010526	0.000000	0.003510	0.003885	0.000000	-0.992828	-0.990796	0.000000	0.002132	0.001013	0.000000	-0.003464	-0.001274	0.000000	-0.010760	-0.005424	0.000000
28.100000	0.006882	0.010513	0.000000	0.003510	0.003497	0.000000	-0.987198	-0.990601	0.000000	0.000542	-0.000444	0.000000	-0.005720	0.000636	0.000000	0.003094	-0.005636	0.000000
28.150000	0.009003	0.010312	0.000000	0.005417	0.004095	0.000000	-0.992020	-0.989639	0.000000	-0.001465	0.000510	0.000000	0.003680	-0.001490	0.000000	-0.013002	-0.004719	0.000000
28.200001	0.012848	0.009689	0.000000	0.002548	0.003903	0.000000	-0.989960	-0.988687	0.000000	-0.004112	-0.001513	0.000000	-0.005771	-0.002169	0.000000	-0.005004	-0.001949	0.000000
28.250000	0.008881	0.010495	0.000000	0.005493	0.003503	0.000000	-0.986191	-0.989828	0.000000	0.005450	-0.002484	0.000000	0.003827	0.003551	0.000000	0.002077	-0.002123	0.000000
28.299999	0.010834	0.011060	0.000000	0.002548	0.002734	0.000000	-0.988068	-0.989423	0.000000	-0.007979	-0.001560	0.000000	-0.006863	0.000722	0.000000	0.003090	-0.000056	0.000000
28.350000	0.010910	0.009479	0.000000	0.001511	0.003107	0.000000	-0.992905	-0.989273	0.000000	-0.004315	-0.001292	0.000000	0.022884	-0.001176	0.000000	0.002223	-0.000755	0.000000
28.400000	0.011826	0.009473	0.000000	0.001572	0.002512	0.000000	-0.989990	-0.989661	0.000000	0.003157	-0.000995	0.000000	-0.010467	-0.000942	0.000000	-0.002666	-0.002592	0.000000
28.450001	0.004944	0.009299	0.000000	0.004410	0.002695	0.000000	-0.989212	-0.990634	0.000000	-0.002774	-0.000939	0.000000	-0.015260	0.000949	0.000000	-0.008501	-0.004652	0.000000
28.500000	0.008850	0.009314	0.000000	0.002518	0.003085	0.000000	-0.988129	-0.990829	0.000000	0.006935	-0.000905	0.000000	0.004996	-0.004759	0.000000	-0.007107	-0.005618	0.000000
28.549999	0.009964	0.008728	0.000000	0.003464	0.003665	0.000000	-0.992935	-0.990460	0.000000	-0.007699	-0.002366	0.000000	0.002594	-0.003321	0.000000	-0.007210	-0.005603	0.000000
28.600000	0.010986	0.010681	0.000000	0.003464	0.003113	0.000000	-0.993881	-0.989819	0.000000	-0.004146	-0.002429	0.000000	-0.005656	0.001950	0.000000	-0.002609	-0.003230	0.000000
28.650000	0.008896	0.010474	0.000000	0.004471	0.002524	0.000000	-0.988144	-0.990207	0.000000	-0.004149	-0.004158	0.000000	-0.003276	0.002683	0.000000	-0.002587	-0.002296	0.000000
28.700001	0.014709	0.010864	0.000000	0.001648	0.003122	0.000000	-0.986008	-0.989429	0.000000	-0.003087	-0.002765	0.000000	0.011092	0.002724	0.000000	0.003362	0.000500	0.000000
28.750000	0.007812	0.011407	0.000000	-0.000427	0.002563	0.000000	-0.990067	-0.987662	0.000000	-0.001709	-0.003761	0.000000	0.008663	0.001792	0.000000	-0.002437	0.001422	0.000000
28.799999	0.011917	0.012009	0.000000	0.006454	0.002963	0.000000	-0.989044	-0.987650	0.000000	-0.000732	-0.003770	0.000000	0.002798	0.003000	0.000000	0.006770	0.001906	0.000000
28.850000	0.013702	0.011041	0.000000	0.000671	0.003137	0.000000	-0.985046	-0.988455	0.000000	-0.009125	-0.005703	0.000000	-0.010315	-0.001284	0.000000	0.002002	0.001399	0.000000
28.900000	0.011902	0.011688	0.000000	0.006470	0.004498	0.000000	-0.988083	-0.989224	0.000000	-0.004196	-0.007148	0.000000	0.002762	-0.004371	0.000000	-0.000166	0.000911	0.000000
28.950001	0.009872	0.012103	0.000000	0.002518	0.004300	0.000000	-0.990036	-0.989984	0.000000	-0.012754	-0.006080	0.000000	-0.010330	-0.006051	0.000000	0.000825	-0.002328	0.000000
29.000000	0.011047	0.011526	0.000000	0.006378	0.004880	0.000000	-0.993912	-0.990198	0.000000	-0.008931	-0.003421	0.000000	-0.006771	-0.003889	0.000000	-0.004879	-0.001362	0.000000
29.049999	0.013992	0.010733	0.000000	0.005463	0.004675	0.000000	-0.992844	-0.990405	0.000000	0.004608	-0.002696	0.000000	-0.005601	-0.005297	0.000000	-0.009421	-0.000897	0.000000
29.100000	0.010818	0.010535	0.000000	0.003571	0.004874	0.000000	-0.986115	-0.990024	0.000000	0.004168	0.000753	0.000000	0.000495	-0.003621	0.000000	0.006829	-0.002009	0.000000
29.150000	0.007935	0.010095	0.000000	0.005447	0.003708	0.000000	-0.989120	-0.989252	0.000000	-0.000570	0.001012	0.000000	-0.004276	-0.004331	0.000000	0.002159	-0.002471	0.000000
29.200001	0.008881	0.009482	0.000000	0.003510	0.003317	0.000000	-0.988129	-0.988876	0.000000	0.004492	-0.000010	0.000000	-0.001951	-0.002159	0.000000	-0.004733	-0.000596	0.000000
29.250000	0.008850	0.009109	0.000000	0.000549	0.003094	0.000000	-0.990051	-0.990247	0.000000	-0.007635	0.000263	0.000000	-0.010321	-0.002389	0.000000	-0.007190	-0.001511	0.000000
29.299999	0.010925	0.009308	0.000000	0.003510	0.002499	0.000000	-0.990967	-0.990823	0.000000	-0.000505	0.000748	0.000000	0.005260	-0.002855	0.000000	-0.000043	-0.001276	0.000000
29.350000	0.008957	0.008493	0.000000	0.002457	0.002103	0.000000	-0.992966	-0.990454	0.000000	0.005536	0.000039	0.000000	-0.000659	-0.002371	0.000000	0.002251	-0.001960	0.000000
29.400000	0.008926	0.008887	0.000000	0.002472	0.002304	0.000000	-0.992004	-0.990250	0.000000	0.001851	-0.000733	0.000000	-0.006605	0.000275	0.000000	0.003333	-0.000310	0.000000
29.450001	0.004807	0.008676	0.000000	0.001526	0.002304	0.000000	-0.986282	-0.989868	0.000000	0.000949	-0.001393	0.000000	0.000468	-0.000931	0.000000	-0.008149	-0.002864	0.000000
29.500000	0.010818	0.009082	0.000000	0.001556	0.002505	0.000000	-0.989029	-0.990051	0.000000	-0.011498	-0.003322	0.000000	0.002913	0.000266	0.000000	0.001059	-0.003547	0.000000
29.549999	0.009872	0.008682	0.000000	0.003510	0.002899	0.000000	-0.989059	-0.989481	0.000000	-0.003805	-0.003088	0.000000	-0.000771	0.002666	0.000000	-0.012815	-0.003050	0.000000
29.600000	0.010986	0.009491	0.000000	0.003464	0.003098	0.000000	-0.993881	-0.989850	0.000000	-0.004108	-0.003841	0.000000	0.005323	0.003878	0.000000	-0.001164	-0.002107	0.000000
29.650000	0.006927	0.009515	0.000000	0.004440	0.004074	0.000000	-0.989151	-0.989856	0.000000	0.003023	-0.001147	0.000000	0.005397	0.003658	0.000000	0.005817	-0.002315	0.000000
29.700001	0.008850	0.009320	0.000000	0.002518	0.004071	0.000000	-0.988129	-0.989862	0.000000	-0.002818	0.000056	0.000000	0.006530	0.006775	0.000000	-0.003434	-0.001575	0.000000
29.750000	0.010941	0.008691	0.000000	0.006439	0.003882	0.000000	-0.989059	-0.988715	0.000000	0.001972	0.001030	0.000000	0.001809	0.006080	0.000000	0.000020	-0.001334	0.000000
29.799999	0.008896	0.009897	0.000000	0.003494	0.003885	0.000000	-0.989090	-0.989459	0.000000	0.002208	-0.001103	0.000000	0.014816	0.003217	0.000000	-0.009116	-0.003443	0.000000
29.850000	0.007843	0.009296	0.000000	0.002518	0.003683	0.000000	-0.988144	-0.989474	0.000000	0.000762	-0.000362	0.000000	0.001848	0.002034	0.000000	0.000044	-0.003675	0.000000
29.900000	0.012955	0.009091	0.000000	0.004456	0.003290	0.000000	-0.992874	-0.989673	0.000000	-0.007642	-0.000608	0.000000	-0.008918	0.001100	0.000000	-0.004729	-0.003442	0.000000
29.950001	0.005844	0.009286	0.000000	0.001511	0.003094	0.000000	-0.988205	-0.989862	0.000000	0.000887	-0.000169	0.000000	0.000616	-0.002909	0.000000	-0.004595	-0.001381	0.000000
30.000000	0.009918	0.010123	0.000000	0.004471	0.003870	0.000000	-0.990051	-0.991013	0.000000	0.000743	0.000358	0.000000	-0.002859	-0.004103	0.000000	0.001188	-0.002771	0.000000
30.049999	0.009872	0.010095	0.000292	0.002518	0.003094	0.000068	-0.990036	-0.990619	0.000039	0.004403	0.004270	0.000497	-0.005233	-0.004082	0.001061	0.001187	-0.002969	0.281244
30.100000	0.012024	0.010315	0.000000	0.006393	0.003085	0.000000	-0.993896	-0.991580	0.000000	0.003399	0.004980	0.000000	-0.004118	-0.004770	0.000000	-0.006907	-0.002034	0.000000
30.150000	0.012817	0.010306	0.000000	0.000580	0.002493	0.000000	-0.990906	-0.991965	0.000000	0.011915	0.004460	0.000000	-0.008815	-0.002848	0.000000	-0.005718	-0.000857	0.000000
30.200001	0.006943	0.010089	0.000000	0.001465	0.002502	0.000000	-0.993011	-0.990997	0.000000	0.004437	0.003785	0.000000	-0.002824	-0.001423	0.000000	0.000080	-0.002919	0.000000
30.250000	0.009872	0.009857	0.000000	0.001511	0.001532	0.000000	-0.991974	-0.990411	0.000000	-0.001856	0.004500	0.000000	0.006750	-0.001162	0.000000	0.007073	-0.002207	0.000000
30.299999	0.008789	0.008884	0.000000	0.002563	0.001907	0.000000	-0.985199	-0.990826	0.000000	0.001028	0.001591	0.000000	0.001890	-0.000212	0.000000	-0.009122	-0.002903	0.000000
30.350000	0.010864	0.009454	0.000000	0.001541	0.001532	0.000000	-0.990967	-0.990228	0.000000	0.006975	-0.001306	0.000000	-0.002809	-0.002826	0.000000	-0.003347	-0.003856	0.000000
30.400000	0.007950	0.008084	0.000000	0.002457	0.002307	0.000000	-0.992981	-0.989880	0.000000	-0.002627	-0.001723	0.000000	-0.004067	-0.003547	0.000000	-0.009196	-0.006398	0.000000
30.450001	0.009796	0.008527	0.000000	-0.000412	0.002679	0.000000	-0.990021	-0.991620	0.000000	-0.010051	-0.002740	0.000000	-0.015895	-0.004240	0.000000	-0.004688	-0.004785	0.000000
30.500000	0.003021	0.007925	0.000000	0.005386	0.002676	0.000000	-0.990234	-0.991443	0.000000	-0.003939	-0.001289	0.000000	0.003144	-0.001600	0.000000	-0.005639	-0.004279	0.000000
30.549999	0.011002	0.008923	0.000000	0.004425	0.003281	0.000000	-0.993896	-0.991034	0.000000	-0.004059	0.000151	0.000000	-0.001574	0.000093	0.000000	-0.001054	-0.003319	0.000000
30.600000	0.007858	0.008551	0.000000	0.001526	0.004059	0.000000	-0.990082	-0.991238	0.000000	0.014232	0.001312	0.000000	0.010392	0.005119	0.000000	-0.000818	-0.001179	0.000000
30.650000	0.012939	0.009329	0.000000	0.005478	0.003873	0.000000	-0.990936	-0.990829	0.000000	0.004573	0.001052	0.000000	0.004397	0.005380	0.000000	-0.004396	-0.000473	0.000000
30.700001	0.007935	0.009500	0.000000	0.003479	0.003497	0.000000	-0.991043	-0.990048	0.000000	-0.004248	0.002276	0.000000	0.009238	0.003732	0.000000	0.006011	-0.000470	0.000000
30.750000	0.006912	0.009741	0.000000	0.004456	0.003271	0.000000	-0.988190	-0.992178	0.000000	-0.005239	-0.001393	0.000000	0.004446	0.002787	0.000000	-0.002106	-0.000030	0.000000
30.799999	0.011856	0.008127	0.000000	0.002548	0.002472	0.000000	-0.989990	-0.991830	0.000000	0.002060	-0.002340	0.000000	-0.009813	0.000652	0.000000	-0.001038	-0.000967	0.000000
30.850000	0.009064	0.008102	0.000000	0.000397	0.002084	0.000000	-1.000732	-0.991251	0.000000	-0.004114	-0.001324	0.000000	0.005668	-0.006718	0.000000	0.001382	-0.002173	0.000000
30.900000	0.004868	0.008694	0.000000	0.001480	0.001495	0.000000	-0.989197	-0.992007	0.000000	-0.000158	0.000871	0.000000	-0.006277	-0.010742	0.000000	-0.009084	-0.001953	0.000000
30.950001	0.007812	0.008279	0.000000	0.001541	0.001498	0.000000	-0.988144	-0.991238	0.000000	0.000832	0.002082	0.000000	-0.027613	-0.012148	0.000000	-0.000018	-0.001484	0.000000
31.000000	0.009872	0.006012	0.000000	0.001511	0.000537	0.000000	-0.991974	-0.988376	0.000000	0.005736	0.005962	0.000000	-0.015676	-0.019017	0.000000	-0.001009	-0.000356	0.000000
31.049999	0.009781	0.004800	0.000000	0.002563	-0.000647	0.000000	-0.986145	-0.988593	0.000000	0.008114	0.005430	0.000000	-0.016841	-0.023031	0.000000	0.001307	0.001468	0.000000
31.100000	-0.002274	0.003799	0.000000	-0.004410	-0.001047	0.000000	-0.986420	-0.988422	0.000000	0.015286	0.004875	0.000000	-0.028677	-0.016331	0.000000	0.007024	0.003853	0.000000
31.150000	-0.001190	0.002039	0.000000	-0.004440	-0.001276	0.000000	-0.990280	-0.989438	0.000000	-0.002820	0.002200	0.000000	-0.026349	-0.015296	0.000000	0.000037	0.012646	0.000000
31.200001	0.002808	0.000864	0.000000	-0.000458	-0.001691	0.000000	-0.987289	-0.990436	0.000000	-0.001939	0.002214	0.000000	0.005888	-0.015998	0.000000	0.011904	0.012191	0.000000
31.250000	0.001068	0.001501	0.000000	0.000366	-0.001312	0.000000	-0.997055	-0.991782	0.000000	-0.007641	0.001008	0.000000	-0.010499	-0.015989	0.000000	0.042960	0.011735	0.000000
31.299999	0.003906	0.004700	0.000000	0.000488	-0.001294	0.000000	-0.991135	-0.993054	0.000000	0.008184	0.004759	0.000000	-0.020354	-0.019731	0.000000	-0.000971	0.017513	0.000000
31.350000	0.000916	0.016467	0.000000	-0.002518	-0.007239	0.000000	-0.993149	-0.994055	0.000000	0.009256	0.010173	0.000000	-0.028630	-0.046912	0.000000	0.004744	0.061966	0.000000
31.400000	0.014801	0.005945	0.000000	-0.004349	-0.005957	0.000000	-0.996643	-0.992014	0.000000	0.015937	0.018048	0.000000	-0.045061	-0.067102	0.000000	0.028927	0.141898	0.000000
31.450001	0.061646	0.013184	0.000000	-0.030182	-0.012177	0.000000	-0.992294	-0.994888	0.000000	0.025131	0.021788	0.000000	-0.130016	-0.084857	0.000000	0.234168	0.203079	0.000000
31.500000	-0.051544	0.007755	0.000000	0.006775	-0.010800	0.000000	-0.986847	-0.989795	0.000000	0.031733	0.028522	0.000000	-0.111448	-0.098961	0.000000	0.442618	0.325396	0.000000
31.549999	0.040100	-0.002127	0.000000	-0.030609	-0.009943	0.000000	-1.005508	-0.990262	0.000000	0.026883	0.031863	0.000000	-0.109131	-0.096413	0.000000	0.304939	0.473760	0.000000
31.600000	-0.026230	-0.022208	0.000000	0.004364	-0.003906	0.000000	-0.967682	-0.989871	0.000000	0.042926	0.031630	0.000000	-0.099150	-0.070361	0.000000	0.616329	0.591075	0.000000
31.650000	-0.034607	-0.023068	0.000000	-0.000061	-0.004663	0.000000	-0.998978	-0.987360	0.000000	0.032643	0.031234	0.000000	-0.032321	-0.053875	0.000000	0.770748	0.650919	0.000000
31.700001	-0.038757	-0.017175	0.000000	0.000000	-0.009003	0.000000	-0.990341	-0.980566	0.000000	0.023963	0.038388	0.000000	0.000246	-0.039350	0.000000	0.820742	0.729529	0.000000
31.750000	-0.055847	-0.025229	0.000000	0.002991	-0.002707	0.000000	-0.974289	-0.986072	0.000000	0.029756	0.038289	0.000000	-0.029019	-0.023027	0.000000	0.741838	0.823850	0.000000
31.799999	0.069565	-0.009924	0.000000	-0.052307	-0.009979	0.000000	-0.971542	-0.987167	0.000000	0.062652	0.044841	0.000000	-0.036506	-0.017680	0.000000	0.697990	0.861418	0.000000
31.850000	-0.066498	0.011636	0.000000	0.035843	-0.018387	0.000000	-0.995209	-0.976038	0.000000	0.042428	0.054454	0.000000	-0.017537	-0.014661	0.000000	1.087930	0.930451	0.000000
31.900000	0.041916	0.021866	0.000000	-0.036423	-0.024460	0.000000	-1.004456	-0.970282	0.000000	0.065404	0.062915	0.000000	-0.005584	-0.007530	0.000000	0.958592	1.033297	0.000000
31.950001	0.069046	0.000964	0.000000	-0.042038	-0.007529	0.000000	-0.934692	-0.974265	0.000000	0.072031	0.054071	0.000000	0.015341	0.008767	0.000000	1.165906	1.126180	0.000000
32.000000	-0.004700	0.003210	0.000000	-0.027374	-0.014575	0.000000	-0.945511	-0.976297	0.000000	0.072059	0.057803	0.000000	0.006637	0.005005	0.000000	1.256066	1.078039	0.000000
32.049999	-0.034943	0.011371	0.000000	0.032349	-0.016168	0.000000	-0.991455	-0.970233	0.000000	0.018433	0.052111	0.000000	0.044978	-0.008539	0.000000	1.162406	1.081355	0.000000
32.099998	-0.055267	0.010471	0.000000	0.000610	-0.009811	0.000000	-1.005371	-0.976712	0.000000	0.061089	0.056966	0.000000	-0.036347	0.012288	0.000000	0.847224	1.145442	0.000000
32.150002	0.082718	-0.013361	0.000000	-0.044388	0.006329	0.000000	-0.974136	-0.993402	0.000000	0.036945	0.045900	0.000000	-0.073303	0.025362	0.000000	0.975172	1.275778	0.000000
32.200001	0.064545	-0.023331	0.000000	-0.010254	0.001077	0.000000	-0.967087	-0.996933	0.000000	0.096307	0.058759	0.000000	0.119477	0.028362	0.000000	1.486342	1.314758	0.000000
32.250000	-0.123856	0.001968	0.000000	0.053329	-0.003229	0.000000	-1.028961	-0.989227	0.000000	0.016728	0.058237	0.000000	0.072004	0.040381	0.000000	1.907744	1.379430	0.000000
32.299999	-0.084793	-0.038266	0.000000	0.006088	0.011758	0.000000	-1.009109	-0.990799	0.000000	0.082725	0.054010	0.000000	0.059982	0.059237	0.000000	1.357309	1.463811	0.000000
32.349998	0.071228	-0.056216	0.000000	-0.020920	0.018726	0.000000	-0.966843	-0.995993	0.000000	0.058478	0.036653	0.000000	0.023748	0.043647	0.000000	1.170583	1.374490	0.000000
32.400002	-0.118454	-0.043481	0.000000	0.030548	0.014398	0.000000	-0.981995	-0.993872	0.000000	0.015811	0.032611	0.000000	0.020973	0.031965	0.000000	1.397075	1.188792	0.000000
32.450001	-0.025208	-0.026398	0.000000	0.024582	0.010132	0.000000	-0.993057	-0.990860	0.000000	0.009521	0.016720	0.000000	0.041530	0.018674	0.000000	1.039740	1.090246	0.000000
32.500000	-0.060181	-0.035126	0.000000	0.031693	0.012289	0.000000	-1.018356	-0.997525	0.000000	-0.003478	-0.000652	0.000000	0.013594	0.021740	0.000000	0.979255	1.037422	0.000000
32.549999	0.000626	-0.012305	0.000072	-0.015244	-0.002914	0.000044	-0.994049	-0.997586	0.000028	0.003268	-0.005526	0.000008	-0.006473	0.021869	0.000340	0.864575	0.973534	0.096259
32.599998	0.027588	-0.025320	0.000000	-0.010132	-0.003107	0.000000	-1.000168	-1.001044	0.000000	-0.028380	-0.006816	0.000000	0.039077	0.013709	0.000000	0.906462	0.939902	0.000000
32.650002	-0.004349	-0.016885	0.000000	-0.045471	-0.010577	0.000000	-0.982300	-0.996100	0.000000	-0.008562	-0.001473	0.000000	0.021616	0.017193	0.000000	1.077637	0.877027	0.000000
32.700001	-0.090286	-0.012210	0.000000	0.023621	-0.014450	0.000000	-1.010345	-0.997113	0.000000	0.003074	-0.002058	0.000000	0.000730	0.021710	0.000000	0.871581	0.771323	0.000000
32.750000	-0.018005	-0.006836	0.000000	-0.005661	-0.019440	0.000000	-0.993637	-0.994406	0.000000	0.023234	0.003965	0.000000	0.031018	0.018231	0.000000	0.664880	0.701447	0.000000
32.799999	0.024002	-0.013022	0.000000	-0.034607	-0.012256	0.000000	-0.999115	-0.993649	0.000000	0.000344	0.004674	0.000000	0.016109	0.026722	0.000000	0.336054	0.692967	0.000000
32.849998	0.054459	-0.004184	0.000000	-0.035080	-0.013690	0.000000	-0.986633	-0.991266	0.000000	0.001733	0.007156	0.000000	0.021681	0.053992	0.000000	0.557083	0.681659	0.000000
32.900002	-0.035278	-0.004919	0.000000	-0.009552	-0.011154	0.000000	-0.978516	-0.991107	0.000000	-0.005014	0.000624	0.000000	0.064075	0.057606	0.000000	1.035236	0.661293	0.000000
32.950001	-0.046097	-0.005872	0.000000	0.016449	-0.009796	0.000000	-0.998428	-0.991141	0.000000	0.015480	-0.001961	0.000000	0.137079	0.055830	0.000000	0.815041	0.675840	0.000000
33.000000	-0.021683	-0.036884	0.000000	0.007019	0.009601	0.000000	-0.992844	-0.992496	0.000000	-0.009424	-0.002983	0.000000	0.049086	0.049575	0.000000	0.563053	0.668604	0.000000
33.049999	0.019241	-0.027652	0.000000	-0.027817	0.011023	0.000000	-0.999283	-0.995953	0.000000	-0.012581	-0.004553	0.000000	0.007227	0.038920	0.000000	0.408786	0.490797	0.000000
33.099998	-0.100601	-0.018704	0.000000	0.061905	0.005475	0.000000	-0.993408	-0.994315	0.000000	-0.003378	-0.008422	0.000000	-0.009594	0.013883	0.000000	0.520905	0.353578	0.000000
33.150002	0.010880	-0.009979	0.000000	-0.002441	-0.001456	0.000000	-0.995804	-0.993256	0.000000	-0.012863	-0.004850	0.000000	0.010800	0.004310	0.000000	0.146197	0.293361	0.000000
33.200001	-0.001358	-0.017160	0.000000	-0.011292	0.007104	0.000000	-0.990234	-0.990787	0.000000	-0.003864	-0.002136	0.000000	0.011897	-0.004015	0.000000	0.128950	0.292384	0.000000
33.250000	0.021942	-0.008847	0.000000	-0.027634	0.007205	0.000000	-0.987549	-0.990176	0.000000	0.008434	-0.003189	0.000000	0.001219	-0.000906	0.000000	0.261966	0.240586	0.000000
33.299999	-0.016663	-0.011880	0.000000	0.014984	0.006616	0.000000	-0.986938	-0.988113	0.000000	0.000992	-0.002359	0.000000	-0.034397	-0.000461	0.000000	0.403902	0.209598	0.000000
33.349998	-0.059036	-0.013037	0.000000	0.062408	0.008365	0.000000	-0.990356	-0.987769	0.000000	-0.008646	-0.001651	0.000000	0.005952	-0.002603	0.000000	0.261914	0.183205	0.000000
33.400002	-0.004288	-0.018054	0.000000	-0.005386	0.013193	0.000000	-0.985489	-0.988330	0.000000	-0.008713	-0.001211	0.000000	0.013023	-0.004746	0.000000	-0.008740	0.130433	0.000000
33.450001	-0.007141	-0.014734	0.000000	-0.002548	0.009293	0.000000	-0.988510	-0.990350	0.000000	-0.000321	0.002290	0.000000	0.001188	-0.004083	0.000000	-0.003016	0.045309	0.000000
33.500000	-0.003143	-0.005554	0.000000	-0.003494	-0.004300	0.000000	-0.990356	-0.990204	0.000000	0.010634	0.002901	0.000000	-0.009495	0.004425	0.000000	-0.001896	-0.014076	0.000000
33.549999	-0.000061	0.001816	0.000000	-0.004517	0.000467	0.000000	-0.997040	-1.005206	0.000000	0.018498	-0.001368	0.000000	-0.031081	0.026195	0.000000	-0.021716	-0.000945	0.000000
33.599998	-0.013138	0.002045	0.000000	-0.005554	0.000058	0.000000	-0.989624	-1.006946	0.000000	-0.005593	-0.000442	0.000000	0.048491	0.025262	0.000000	-0.035011	0.000903	0.000000
33.650002	0.032562	0.001440	0.000000	0.018448	0.000458	0.000000	-1.060501	-1.005988	0.000000	-0.030060	-0.002666	0.000000	0.121872	0.029790	0.000000	0.056916	0.001857	0.000000
33.700001	-0.005997	0.001044	0.000000	-0.004593	0.000845	0.000000	-0.997208	-1.005615	0.000000	0.004312	-0.005488	0.000000	-0.003478	0.037923	0.000000	0.006221	0.006774	0.000000
